"Time (s)","Linear Acceleration x (m/s^2)","Linear Acceleration y (m/s^2)","Linear Acceleration z (m/s^2)","Absolute acceleration (m/s^2)"
-2.499791677E-3,-9.059994605E-1,1.477985936E0,-1.458007316E0,2.265184934E0
7.476208324E-3,-1.373424126E0,1.674081523E0,-6.270998454E-1,2.254350680E0
1.745120832E-2,-1.391936118E0,1.831783268E0,1.318879836E0,2.651859747E0
2.742720832E-2,-1.011587311E0,1.794621581E0,3.484149985E0,4.047626048E0
3.740320832E-2,-4.912699029E-1,1.420612764E0,4.234395116E0,4.493282624E0
4.737920832E-2,-5.200972608E-1,1.294232214E0,3.251527281E0,3.538074031E0
5.735520832E-2,-8.913621256E-1,1.489378213E0,1.831756663E0,2.523510723E0
6.733120832E-2,-1.225241940E0,1.730531273E0,6.173846966E-1,2.208420287E0
7.730620832E-2,-1.036903416E0,1.768465085E0,-2.591012353E-1,2.066342397E0
8.728220832E-2,-1.156597382E0,2.220070839E0,-6.928751743E-1,2.597404097E0
9.725820832E-2,-1.223307389E0,2.686488613E0,-5.200156921E-1,2.997351891E0
1.072342083E-1,-9.331703022E-1,2.657578225E0,-4.128251195E-2,2.816954576E0
1.172102083E-1,-3.312143612E-1,2.093253210E0,6.255532569E-1,2.209689759E0
1.271862083E-1,2.022078270E-1,1.649944216E0,1.313778141E0,2.118777224E0
1.371612083E-1,5.325635245E-1,1.495014344E0,1.866972688E0,2.450362997E0
1.471372083E-1,7.040822402E-1,1.526899211E0,1.774073296E0,2.444276797E0
1.571132083E-1,8.554999825E-1,1.521091756E0,1.014856197E0,2.018795050E0
1.670892083E-1,8.537937650E-1,1.508517904E0,-1.221015573E-1,1.737670524E0
1.770652083E-1,8.262106946E-1,1.681532922E0,-1.138542350E0,2.192363054E0
1.870402083E-1,6.323611701E-1,1.744298250E0,-1.636677761E0,2.474100064E0
1.970162083E-1,4.696889994E-1,1.605257455E0,-1.699202623E0,2.384271127E0
2.069922083E-1,4.691244507E-1,1.270042722E0,-1.346871042E0,1.909750735E0
2.169682083E-1,5.880433685E-1,7.200239427E-1,-6.585602045E-1,1.139267758E0
2.269442083E-1,7.616243970E-1,1.340336048E-1,-1.696803510E-2,7.735144754E-1
2.369202083E-1,1.089196528E0,-3.701644919E-1,2.974004978E-1,1.188199429E0
2.468952083E-1,1.341197489E0,-6.659480884E-1,1.356320143E-1,1.503560309E0
2.568712083E-1,1.334158903E0,-5.656813500E-1,-1.922634673E-1,1.461827832E0
2.668472083E-1,1.026505313E0,-2.852599239E-1,-1.189423066E-1,1.072023159E0
2.768232083E-1,6.658560678E-1,-7.688752368E-2,4.224408656E-1,7.922955757E-1
2.867992083E-1,7.265007573E-1,9.933162242E-2,1.421273353E0,1.599277357E0
2.967752083E-1,1.238630017E0,5.126147251E-1,2.790815220E0,3.096066499E0
3.067502083E-1,1.917529761E0,1.325418193E0,4.378230189E0,4.960096104E0
3.167262083E-1,2.647904299E0,2.047713633E0,5.521702327E0,6.457067824E0
3.267022083E-1,3.129939110E0,1.936591100E0,5.305224954E0,6.456958706E0
3.366782083E-1,2.838593404E0,1.703716089E0,4.780984649E0,5.815331051E0
3.466542083E-1,2.048600363E0,1.598919951E0,4.748549559E0,5.413135078E0
3.566292083E-1,1.141367725E0,1.641974315E0,4.495431195E0,4.920132271E0
3.666052083E-1,4.427815747E-1,1.631682777E0,3.726390190E0,4.091995608E0
3.765812083E-1,2.359842682E-1,1.639269539E0,3.057209687E0,3.476984939E0
3.865572083E-1,-5.207530260E-3,1.959917982E0,2.087067733E0,2.863067819E0
3.965332083E-1,-2.172763941E-1,2.415458766E0,5.833006918E-1,2.494371620E0
4.065092083E-1,-5.093342909E-1,3.007485550E0,-7.448148215E-1,3.139926730E0
4.164842083E-1,-7.750422952E-1,3.197430012E0,-1.464502403E0,3.601252078E0
4.264602083E-1,-1.958671356E0,3.034064654E0,-5.512187737E-1,3.653188188E0
4.364362083E-1,-2.721788254E0,2.316149948E0,5.472309726E-1,3.615541954E0
4.464122083E-1,-2.252123521E0,1.424246078E0,1.480751231E0,3.048468706E0
4.563882083E-1,-1.291106439E0,9.507066867E-1,1.588158735E0,2.256778059E0
4.663632083E-1,-3.144960022E-1,9.991929683E-1,9.202213508E-1,1.394310460E0
4.763392083E-1,3.077822292E-1,1.321724214E0,-4.816702366E-2,1.357941406E0
4.863152083E-1,6.390812288E-1,1.508207417E0,-1.140792943E0,1.996126992E0
4.962912083E-1,6.858968148E-1,1.197750671E0,4.945220658E0,5.134225206E0
5.062672083E-1,2.855073342E-1,7.662483752E-1,2.662651854E0,2.785384337E0
5.162432083E-1,-7.156456207E-1,1.271465057E0,2.007859595E0,2.481989565E0
5.262182083E-1,-2.320083808E0,2.036838396E0,2.913579267E0,4.245049313E0
5.361942083E-1,-2.923113737E0,3.234423591E0,2.763464284E-1,4.368347197E0
5.461702083E-1,-3.808635371E0,4.854883515E0,-2.548855097E0,6.676245924E0
5.561462083E-1,-4.320114128E0,5.051296166E0,-6.139533750E0,9.048361935E0
5.661222083E-1,-3.766463497E0,3.848908069E0,-7.097004204E0,8.908861278E0
5.760982083E-1,-3.182433658E0,3.871866868E0,-5.520821736E0,7.456454229E0
5.860732083E-1,-2.680201687E0,5.133292256E0,-4.084445609E0,7.086385990E0
5.960485417E-1,-3.492876662E0,6.478098646E0,-1.929849553E0,7.608565485E0
6.060245417E-1,-4.743501365E0,6.482348403E0,1.108521575E0,8.108666111E0
6.160005417E-1,-4.929177652E0,4.298781146E0,5.378543776E-1,6.562438495E0
6.259765417E-1,-5.277468807E0,2.679312326E0,-4.740548229E-1,5.937602169E0
6.359525417E-1,-5.247550943E0,2.500045465E0,-1.939755321E0,6.127778466E0
6.459275417E-1,-6.169358059E0,2.874876546E0,-2.127777802E0,7.131152248E0
6.559035417E-1,-7.253735896E0,3.081118367E0,-9.973192281E-1,7.943841670E0
6.658795417E-1,-4.016502718E0,1.812502659E0,-8.030507505E-2,4.407256389E0
6.758555417E-1,-2.281078348E0,1.306620125E0,2.805676503E0,3.844788060E0
6.858315417E-1,-3.154238091E0,1.521125085E0,2.764874048E0,4.461789771E0
6.958065417E-1,-4.176550950E0,2.175664744E0,1.393893181E0,4.911215035E0
7.057825417E-1,-5.598007906E0,2.376619952E0,1.645292464E0,6.300238266E0
7.157585417E-1,-6.603585157E0,1.839112314E0,3.292602802E0,7.604663322E0
7.257345417E-1,-7.129263877E0,6.655562519E-1,6.211503035E0,9.479036792E0
7.357105417E-1,-7.296984242E0,-1.373263638E-1,9.613682658E0,1.207011731E1
7.456865417E-1,-6.564483656E0,-8.590777476E-1,1.050001355E1,1.241292652E1
7.556615417E-1,-5.744695836E0,-1.297502270E0,1.018555029E1,1.176564818E1
7.656375417E-1,-3.901736200E0,-1.889970665E0,9.065864625E0,1.004915100E1
7.756135417E-1,-1.681557334E0,-2.059883735E0,7.688322598E0,8.135174272E0
7.855895417E-1,5.285872443E-2,-1.480646419E0,6.399612640E0,6.568877363E0
7.955655417E-1,1.351773494E0,-1.185035462E0,4.814120820E0,5.138809190E0
8.055405417E-1,2.080377056E0,-1.060674102E0,3.260168297E0,4.010198944E0
8.155165417E-1,2.234505714E0,-1.197197086E0,1.569789707E0,2.981700249E0
8.254925417E-1,2.041493803E0,-1.839477472E0,-1.057025732E0,2.944261829E0
8.354685417E-1,1.598402911E0,-2.587316912E0,-3.444710516E0,4.595120369E0
8.454445417E-1,1.665998624E0,-3.106734434E0,-5.727334283E0,6.725303581E0
8.554205417E-1,2.008561115E0,-3.216361542E0,-7.477553862E0,8.384098704E0
8.653955417E-1,2.627818529E0,-3.603897161E0,-8.704202058E0,9.780421179E0
8.753715417E-1,3.460336322E0,-4.477001648E0,-9.340363333E0,1.092061621E1
8.853475417E-1,4.026702308E0,-5.083867496E0,-9.503212967E0,1.150526388E1
8.953235417E-1,4.373485174E0,-5.180952911E0,-1.013808727E1,1.219632974E1
9.052995417E-1,4.458321841E0,-4.987144024E0,-1.118916872E1,1.303632371E1
9.152755417E-1,4.232547981E0,-4.612807032E0,-1.221769746E1,1.372824033E1
9.252505417E-1,4.123814328E0,-4.023176437E0,-1.286109818E1,1.409253844E1
9.352265417E-1,4.999517902E0,-3.711798755E0,-1.378246500E1,1.512378824E1
9.452025417E-1,6.274631914E0,-3.622036101E0,-1.363950993E1,1.544429935E1
9.551785417E-1,6.769784076E0,-3.814517670E0,-1.321669309E1,1.533171542E1
9.651545417E-1,6.575615585E0,-4.239168198E0,-1.274361241E1,1.495355893E1
9.751295416E-1,6.042274089E0,-4.629999308E0,-1.193811051E1,1.415854697E1
9.851055417E-1,5.644444154E0,-4.865917503E0,-1.079136744E1,1.311451540E1
9.950815417E-1,5.518859410E0,-5.088333600E0,-8.720721611E0,1.150651700E1
1.005057542E0,5.643251322E0,-5.259755836E0,-6.166560166E0,9.876121770E0
1.015033542E0,5.173243942E0,-5.037799038E0,-1.519952134E0,7.379168417E0
1.025009542E0,6.433482637E0,-3.896542118E0,6.634028685E-1,7.550684915E0
1.034984542E0,8.003814965E0,-3.627937696E0,3.235484276E0,9.364365671E0
1.044960542E0,7.827598597E0,-3.284074346E0,6.252769175E0,1.054293918E1
1.054936542E0,6.570738423E0,-3.533350797E0,9.686751804E0,1.222670568E1
1.064912542E0,4.842855500E0,-4.740088638E0,1.362518659E1,1.521733877E1
1.074888542E0,3.557228487E0,-5.397843681E0,1.708734403E1,1.826931627E1
1.084863542E0,2.751472229E0,-4.876075578E0,1.895709882E1,1.976659577E1
1.094839542E0,2.285026388E0,-3.146466265E0,1.938210720E1,1.976835034E1
1.104815542E0,1.579966494E0,-1.690509567E0,1.886691605E1,1.900827814E1
1.114791542E0,5.914867938E-1,-7.376456966E-1,1.796423576E1,1.798910070E1
1.124767542E0,-2.596195909E-1,-8.902458921E-2,1.709331754E1,1.709552083E1
1.134743542E0,-7.855260605E-1,2.765895264E-1,1.653380917E1,1.655476967E1
1.144718542E0,-1.422297785E0,7.317707066E-1,1.558363429E1,1.566550596E1
1.154694542E0,-2.349344006E0,1.739462457E0,1.337835106E1,1.369399226E1
1.164670542E0,-3.252813669E0,2.726988183E0,1.020182777E1,1.104964032E1
1.174646542E0,-4.053469107E0,3.662160864E0,6.674621810E0,8.625115090E0
1.184622542E0,-4.683383802E0,4.854536190E0,3.134312242E0,7.438045354E0
1.194597542E0,-5.086419221E0,5.936363472E0,-3.453195995E-1,7.825044242E0
1.204573542E0,-5.887718146E0,7.235865635E0,-3.249671960E0,9.878428230E0
1.214549542E0,-7.158950776E0,8.553015280E0,-5.722132015E0,1.253584626E1
1.224525542E0,-8.293608820E0,9.223347684E0,-7.780065411E0,1.464184099E1
1.234501542E0,-9.312301961E0,9.237238914E0,-9.063718112E0,1.594354216E1
1.244477542E0,-1.010777413E1,8.834112571E0,-9.430261350E0,1.640544032E1
1.254452542E0,-1.064191261E1,8.222220749E0,-8.644867437E0,1.598714956E1
1.264428542E0,-1.063038658E1,7.482642109E0,-7.289015656E0,1.490385188E1
1.274404542E0,-1.033158918E1,6.813765078E0,-6.165477846E0,1.382686684E1
1.284380542E0,-1.000569929E1,6.013829724E0,-5.395556835E0,1.286048987E1
1.294356542E0,-9.511017246E0,5.269514839E0,-4.928695257E0,1.193814360E1
1.304332542E0,-8.751925862E0,4.675343004E0,-4.441787669E0,1.087127022E1
1.314307542E0,-7.899689503E0,4.119871550E0,-3.549375091E0,9.590437914E0
1.324283542E0,-7.417591835E0,3.323310040E0,-2.425053754E0,8.482095494E0
1.334259542E0,-7.103651319E0,2.154252094E0,-6.845785600E-1,7.454616821E0
1.344235542E0,-6.893781885E0,3.443920118E-1,2.486633121E0,7.336632662E0
1.354211542E0,-6.898927435E0,-2.193690248E0,7.113032591E0,1.014902504E1
1.364186542E0,-6.667051420E0,-4.559654088E0,1.104128796E1,1.368027996E1
1.374162542E0,-5.943109989E0,-5.577792912E0,1.209826341E1,1.458767657E1
1.384138542E0,-5.144156967E0,-5.054874077E0,1.028526520E1,1.256187816E1
1.394114542E0,-3.621631766E0,-3.452836391E0,8.374160648E0,9.755247939E0
1.404090542E0,-1.570248713E0,-1.676466456E0,8.713265242E0,9.010949560E0
1.414066542E0,-6.797795308E-1,-1.442758070E0,1.002636101E1,1.015241677E1
1.424041542E0,-7.832923510E-1,-2.693885341E0,1.063405278E1,1.099789269E1
1.434017542E0,-6.310234002E-1,-4.061635329E0,1.058766448E1,1.135753984E1
1.443993542E0,6.233202052E-1,-5.176072825E0,1.066693050E1,1.187281198E1
1.453969542E0,3.056198996E0,-5.995088228E0,1.057841068E1,1.253731261E1
1.463945542E0,5.494286487E0,-5.834973922E0,9.777034568E0,1.264217187E1
1.473921542E0,7.323583226E0,-4.972892021E0,7.526136038E0,1.161926202E1
1.483896542E0,7.473839711E0,-4.305294945E0,4.098704045E0,9.549514094E0
1.493872542E0,6.191021408E0,-3.970121141E0,5.039551449E-1,7.371877559E0
1.503848542E0,4.607507409E0,-3.911215414E0,-2.521293077E0,6.548560858E0
1.513824542E0,3.362137306E0,-4.137891207E0,-4.894561551E0,7.237599303E0
1.523800542E0,2.843191654E0,-4.559549423E0,-6.651511275E0,8.550779612E0
1.533775542E0,2.957023494E0,-4.787168080E0,-7.841077598E0,9.651086160E0
1.543751542E0,3.667051183E0,-4.992139885E0,-8.489916222E0,1.050939591E1
1.553727542E0,4.563812920E0,-5.194043072E0,-8.658452273E0,1.108040015E1
1.563703542E0,5.090267274E0,-4.950777851E0,-8.921359461E0,1.140226630E1
1.573679542E0,5.856268312E0,-4.724754315E0,-9.795858509E0,1.235224780E1
1.583655542E0,5.898015093E0,-4.380022361E0,-1.072438291E1,1.299936793E1
1.593630542E0,5.396091270E0,-3.929258752E0,-1.164395580E1,1.342157152E1
1.603606417E0,5.178066140E0,-3.854783058E0,-1.235071460E1,1.393599198E1
1.613582417E0,5.299672439E0,-3.965974296E0,-1.289567393E1,1.449530566E1
1.623558417E0,5.614113477E0,-3.857482718E0,-1.322627551E1,1.487725804E1
1.633534417E0,5.877762092E0,-3.570530025E0,-1.345582082E1,1.511144883E1
1.643509417E0,5.912580507E0,-3.455461206E0,-1.409684639E1,1.567226527E1
1.653485417E0,5.865287642E0,-3.245186268E0,-1.498912449E1,1.641970420E1
1.663461417E0,5.549324573E0,-3.268146822E0,-1.523835855E1,1.654337807E1
1.673437417E0,5.866846510E0,-3.684334676E0,-1.563534940E1,1.710141401E1
1.683413417E0,6.317158713E0,-4.126809564E0,-1.487955000E1,1.668346666E1
1.693389417E0,6.356923288E0,-4.642809096E0,-1.308950445E1,1.527420299E1
1.703364417E0,6.204629048E0,-4.868742585E0,-1.047708544E1,1.311378646E1
1.713340417E0,6.085398474E0,-4.873059584E0,-7.583643989E0,1.087614088E1
1.723316417E0,6.375289977E0,-5.126874352E0,-2.808656244E0,8.649723280E0
1.733292417E0,8.302605346E0,-5.227231869E0,3.058035314E-2,9.811123468E0
1.743268417E0,1.022205212E1,-5.204676234E0,4.198197343E0,1.221490340E1
1.753243417E0,1.059278313E1,-5.569220894E0,1.033141493E1,1.581016794E1
1.763219417E0,1.003543706E1,-8.097361060E0,1.764559759E1,2.185507647E1
1.773195417E0,8.747219439E0,-1.068844358E1,2.563238078E1,2.911658666E1
1.783171417E0,7.088449727E0,-1.112354542E1,3.065382224E1,3.337118817E1
1.793147417E0,5.059525537E0,-9.243113027E0,3.000901000E1,3.180526086E1
1.803123417E0,3.675066254E0,-6.144656496E0,2.570210298E1,2.668072363E1
1.813098417E0,2.619820122E0,-2.823410524E0,2.060133119E1,2.095829075E1
1.823074417E0,1.073704622E0,-1.494869552E-1,1.640804141E1,1.644381376E1
1.833050417E0,-8.295371756E-1,1.456112526E0,1.373447105E1,1.383633227E1
1.843026417E0,-2.405227016E0,2.415352639E0,1.251033073E1,1.296639581E1
1.853002417E0,-3.977417882E0,2.968710909E0,1.077204473E1,1.186044034E1
1.862977417E0,-5.489349682E0,3.918177401E0,7.705124572E0,1.023982513E1
1.872953417E0,-6.741120440E0,4.822541103E0,4.324917031E0,9.349038175E0
1.882929417E0,-7.679029033E0,5.467024428E0,1.396501039E0,9.529221277E0
1.892905417E0,-8.453056544E0,6.131709006E0,-6.675672555E-1,1.046411326E1
1.902881417E0,-9.110891694E0,6.603790394E0,-2.152247230E0,1.145646382E1
1.912857417E0,-9.691055939E0,6.822906615E0,-3.554119522E0,1.237337405E1
1.922832417E0,-1.032024207E1,6.857681175E0,-4.565508905E0,1.320526634E1
1.932808417E0,-1.073498625E1,6.781141707E0,-5.114048485E0,1.368858300E1
1.942784417E0,-1.066019451E1,6.806834373E0,-5.396054433E0,1.375100522E1
1.952760417E0,-1.046966767E1,6.583169019E0,-5.503478310E0,1.353662916E1
1.962736417E0,-1.040621719E1,5.846835583E0,-5.211129806E0,1.302423573E1
1.972712417E0,-1.034980676E1,5.087022654E0,-5.040652480E0,1.258588403E1
1.982687417E0,-1.006140455E1,4.514595737E0,-5.109113435E0,1.215386672E1
1.992663417E0,-9.613382696E0,3.961735649E0,-5.126246946E0,1.159270822E1
2.002639417E0,-8.969235878E0,3.748119320E0,-5.032658166E0,1.094638017E1
2.012615417E0,-7.953289760E0,3.815696176E0,-4.134621736E0,9.742148234E0
2.022591417E0,-6.891620754E0,3.699265541E0,-2.530201895E0,8.220761752E0
2.032566417E0,-6.316471081E0,3.018136838E0,-2.999843824E-1,7.006921401E0
2.042542417E0,-6.002659203E0,1.317316437E0,2.804024080E0,6.754982690E0
2.052518417E0,-5.937201962E0,-5.258937518E-1,5.970662654E0,8.436571810E0
2.062494417E0,-6.077916377E0,-1.569503193E0,8.310387406E0,1.041474659E1
2.072470417E0,-6.001659914E0,-1.886057708E0,8.821006622E0,1.083454167E1
2.082446417E0,-5.572880666E0,-1.797545335E0,7.880408894E0,9.817790612E0
2.092421417E0,-4.498200436E0,-1.322908129E0,7.371510513E0,8.736307019E0
2.102397417E0,-2.760495945E0,-7.577653809E-1,8.844627619E0,9.296342504E0
2.112373417E0,-4.596170242E-1,-1.188575366E0,1.198249789E1,1.205007116E1
2.122349417E0,1.711791678E0,-2.896141700E0,1.454066176E1,1.492476840E1
2.132325417E0,3.396083609E0,-4.805069623E0,1.561007657E1,1.668222313E1
2.142300417E0,4.631183662E0,-6.282184178E0,1.564557502E1,1.748421339E1
2.152276417E0,5.465816978E0,-6.676281835E0,1.456933884E1,1.693261730E1
2.162252417E0,6.083613319E0,-6.357848318E0,1.236235524E1,1.517433403E1
2.172228417E0,6.489880201E0,-6.034960976E0,9.398292868E0,1.291770908E1
2.182204417E0,6.502349973E0,-5.649336519E0,6.040514077E0,1.052061636E1
2.192180417E0,5.687973751E0,-5.520581415E0,2.824557747E0,8.414748423E0
2.202155417E0,4.469588841E0,-5.604406514E0,2.183525741E-2,7.168477771E0
2.212131417E0,3.322147613E0,-5.829443040E0,-2.093144744E0,7.028536537E0
2.222107417E0,2.738239980E0,-5.959724268E0,-3.596215382E0,7.479908864E0
2.232083417E0,3.006766927E0,-5.710230592E0,-4.667935751E0,7.964735084E0
2.242059417E0,3.990511259E0,-5.510760432E0,-5.629417394E0,8.830798427E0
2.252034417E0,4.917228282E0,-5.520014820E0,-6.706199114E0,9.981122389E0
2.262010417E0,5.166840656E0,-5.398330754E0,-7.680486744E0,1.071578713E1
2.271986417E0,5.469140536E0,-6.205393279E0,-9.318594149E0,1.246012042E1
2.281962417E0,5.375522520E0,-6.576028984E0,-1.080220467E1,1.374147100E1
2.291938417E0,5.295597514E0,-6.334473488E0,-1.197200331E1,1.454296293E1
2.301914417E0,5.424927399E0,-5.986024459E0,-1.272247941E1,1.507062734E1
2.311889417E0,5.910141633E0,-5.566142920E0,-1.328777184E1,1.557166021E1
2.321865417E0,6.560354937E0,-5.239631474E0,-1.360459971E1,1.598677980E1
2.331841417E0,7.173874624E0,-4.963370415E0,-1.391949567E1,1.642716904E1
2.341817417E0,7.462365135E0,-4.716336371E0,-1.416357482E1,1.668944498E1
2.351793417E0,7.882531434E0,-4.394145141E0,-1.474812565E1,1.729017129E1
2.361769417E0,7.717816538E0,-4.207958392E0,-1.436661120E1,1.684253910E1
2.371744417E0,7.203704195E0,-4.342605443E0,-1.374933000E1,1.611817767E1
2.381720417E0,6.469693859E0,-4.852700457E0,-1.168948690E1,1.421442029E1
2.391696417E0,5.529030057E0,-4.968894280E0,-8.069217827E0,1.097143382E1
2.401672417E0,5.300601561E0,-4.525423611E0,-4.454017705E0,8.271282215E0
2.411648417E0,5.032299732E0,-3.899790832E0,8.254806697E-2,6.367041959E0
2.421623417E0,5.746809604E0,-2.597975217E0,3.773213523E0,7.349315352E0
2.431599417E0,6.832740462E0,-6.435018700E-1,5.806629544E0,8.989848916E0
2.441575417E0,7.441059635E0,8.865793955E-1,7.366575463E0,1.050817898E1
2.451551417E0,7.333187277E0,8.698396942E-1,1.051225762E1,1.284678236E1
2.461527417E0,6.820353135E0,5.061364487E-2,1.406234782E1,1.562912041E1
2.471503417E0,5.707511637E0,-2.418833779E-1,1.666873017E1,1.762046430E1
2.481478417E0,4.095097482E0,-4.344893458E-1,1.836011097E1,1.881627697E1
2.491454417E0,2.388188668E0,-7.469877930E-1,1.950431635E1,1.966417535E1
2.501430417E0,9.404467236E-1,-5.338563439E-1,1.946977801E1,1.949978714E1
2.511406417E0,-1.094706944E-1,6.718947798E-2,1.775524107E1,1.775570566E1
2.521382417E0,-9.606840831E-1,8.059778666E-1,1.486358243E1,1.491638686E1
2.531357417E0,-1.727696982E0,1.729547479E0,1.163052709E1,1.188467213E1
2.541333417E0,-2.387980945E0,2.620848940E0,8.200956180E0,8.934594811E0
2.551309417E0,-3.129734165E0,3.271220411E0,4.723505350E0,6.542753374E0
2.561285417E0,-4.136742814E0,3.648448559E0,1.542898947E0,5.727508634E0
2.571261417E0,-5.092507927E0,3.807470605E0,-1.037444576E0,6.442574070E0
2.581237417E0,-5.782241392E0,3.760217502E0,-3.004967154E0,7.523521700E0
2.591212417E0,-6.222512172E0,3.507261105E0,-4.529782417E0,8.458100670E0
2.601188792E0,-6.558038270E0,3.221115036E0,-5.838271751E0,9.352479087E0
2.611164792E0,-6.841537598E0,2.950199209E0,-6.685388873E0,1.001023159E1
2.621140792E0,-6.867304523E0,2.677958988E0,-6.997535464E0,1.016350522E1
2.631116792E0,-6.630426800E0,2.389396849E0,-6.908755435E0,9.869279534E0
2.641091792E0,-7.547976558E0,1.948328508E0,-6.550992960E0,1.018250671E1
2.651067792E0,-8.858711223E0,1.888636915E0,-6.607861226E0,1.121193756E1
2.661043792E0,-9.875535593E0,2.046571964E0,-6.677305682E0,1.209549797E1
2.671019792E0,-1.072137159E1,1.804336730E0,-6.626863507E0,1.273258653E1
2.680995792E0,-1.108961169E1,1.396615645E0,-6.751819675E0,1.305821931E1
2.690971792E0,-1.117402326E1,1.120550760E0,-6.903780039E0,1.318243562E1
2.700946792E0,-1.108087127E1,1.143044121E0,-6.474645281E0,1.288461445E1
2.710922792E0,-1.057702372E1,9.528700103E-1,-5.295512729E0,1.186692239E1
2.720898792E0,-9.931542563E0,5.068055163E-1,-3.735877882E0,1.062304914E1
2.730874792E0,-9.327065595E0,6.903617486E-2,-1.338172140E0,9.422824592E0
2.740850792E0,-8.308899289E0,-1.926201475E-1,2.251711877E0,8.610755849E0
2.750826792E0,-7.117719719E0,-5.550700423E-1,6.748491440E0,9.824060946E0
2.760801792E0,-6.398735558E0,-1.308643993E0,1.105672227E1,1.284163047E1
2.770777792E0,-5.714709560E0,-1.700685330E0,1.420262370E1,1.540340079E1
2.780753792E0,-4.578505511E0,-1.766381722E0,1.610989189E1,1.684076702E1
2.790729792E0,-2.990480677E0,-1.861140968E0,1.786826073E1,1.821212678E1
2.800705792E0,-1.423663110E0,-2.331935383E0,1.937862694E1,1.957028158E1
2.810680792E0,1.787435353E-1,-3.490096311E0,1.936763417E1,1.968039570E1
2.820656792E0,1.519004593E0,-4.578646137E0,1.812721520E1,1.875812641E1
2.830632792E0,2.651384270E0,-4.835260844E0,1.687942757E1,1.775738328E1
2.840608792E0,4.166448716E0,-4.902924531E0,1.581434203E1,1.707311857E1
2.850584792E0,5.886560397E0,-4.856386834E0,1.425182801E1,1.616634430E1
2.860560792E0,6.834021002E0,-4.480413206E0,1.143482896E1,1.405465257E1
2.870535792E0,6.620526295E0,-4.036964757E0,7.534670050E0,1.081201672E1
2.880511792E0,5.840971996E0,-3.572287406E0,3.682519115E0,7.774261264E0
2.890487792E0,4.977073365E0,-3.130703925E0,3.384029281E-1,5.889574084E0
2.900463792E0,4.595868233E0,-2.916961881E0,-2.243015898E0,5.887426581E0
2.910439792E0,4.831436180E0,-2.788774249E0,-4.018093160E0,6.874962547E0
2.920414792E0,5.449267019E0,-2.750129124E0,-5.845418218E0,8.451428009E0
2.930390792E0,5.846573628E0,-3.118546979E0,-7.646219721E0,1.011792639E1
2.940366792E0,5.820524282E0,-4.147067535E0,-9.124204050E0,1.158998583E1
2.950342792E0,5.343034220E0,-5.037985564E0,-1.036949668E1,1.270652488E1
2.960318792E0,4.955226998E0,-5.004934763E0,-1.141161552E1,1.341001921E1
2.970294792E0,5.248763071E0,-4.355109129E0,-1.266456858E1,1.438428958E1
2.980269792E0,6.017975399E0,-3.738249805E0,-1.399548959E1,1.568643581E1
2.990245792E0,6.721719378E0,-3.470975331E0,-1.513359749E1,1.691907072E1
3.000221792E0,7.148187221E0,-3.345519811E0,-1.649992222E1,1.829033943E1
3.010197792E0,7.180778432E0,-3.452027429E0,-1.774570777E1,1.945225479E1
3.020173792E0,6.814273201E0,-3.918809777E0,-1.872013456E1,2.030356686E1
3.030148792E0,6.190262439E0,-4.597043816E0,-1.924029351E1,2.072778462E1
3.040124792E0,5.562948586E0,-5.246124807E0,-1.886984316E1,2.036023584E1
3.050100792E0,5.152342485E0,-5.807259289E0,-1.752198043E1,1.916482955E1
3.060076792E0,5.328560607E0,-6.176586971E0,-1.534064506E1,1.737467052E1
3.070052792E0,5.943218163E0,-6.658377661E0,-1.269841694E1,1.552113488E1
3.080028792E0,6.386221932E0,-7.376960703E0,-9.384401053E0,1.353773847E1
3.090003792E0,5.933410043E0,-7.217751546E0,-2.807150002E0,9.756094672E0
3.099979792E0,5.651510514E0,-6.373662697E0,4.373009795E-1,8.529617776E0
3.109955792E0,5.868837487E0,-5.813056219E0,1.722679194E0,8.438157361E0
3.119931792E0,6.871673563E0,-4.241640693E0,1.739927895E0,8.260675662E0
3.129907792E0,8.387739052E0,-1.646847092E0,3.514881781E0,9.242330101E0
3.139883792E0,1.005601575E1,-9.051495677E-1,8.876293800E0,1.344363568E1
3.149858792E0,1.157467448E1,-3.205597402E0,1.635825705E1,2.029387882E1
3.159834792E0,1.147916957E1,-5.731167133E0,2.406837222E1,2.727460636E1
3.169810792E0,9.722775915E0,-7.410893265E0,3.000088238E1,3.239609010E1
3.179786792E0,6.397943845E0,-8.063061878E0,3.315169195E1,3.471284102E1
3.189762792E0,3.196093046E0,-7.370939825E0,3.248788563E1,3.346652771E1
3.199737792E0,8.584142348E-1,-5.227900205E0,2.806194333E1,2.855766935E1
3.209713792E0,-8.353960857E-1,-2.412335768E0,2.189743202E1,2.204574289E1
3.219689792E0,-2.227527501E0,3.106347933E-1,1.588203876E1,1.604049649E1
3.229665792E0,-3.697031904E0,2.275034081E0,1.048332209E1,1.134653546E1
3.239641792E0,-5.313145008E0,3.312836507E0,5.515751030E0,8.344333708E0
3.249617792E0,-7.092394844E0,3.882378116E0,1.137824312E0,8.165143515E0
3.259592792E0,-8.388695657E0,4.078207800E0,-2.350685942E0,9.619132917E0
3.269568792E0,-8.890897222E0,3.892222196E0,-4.688992159E0,1.077887260E1
3.279544792E0,-9.088548898E0,3.587905903E0,-6.036991714E0,1.148564577E1
3.289520792E0,-9.348305022E0,3.480515356E0,-6.957536416E0,1.216191214E1
3.299496792E0,-9.936688113E0,3.448784856E0,-7.890226370E0,1.314867141E1
3.309472792E0,-1.081404645E1,3.207553881E0,-8.796674019E0,1.430431670E1
3.319447792E0,-1.166292183E1,2.753036360E0,-9.408456498E0,1.523555081E1
3.329423792E0,-1.239557561E1,2.240018177E0,-9.500359526E0,1.577735109E1
3.339399792E0,-1.321264214E1,1.617560436E0,-9.088725484E0,1.611816816E1
3.349375792E0,-1.400450716E1,1.010456167E0,-8.758443169E0,1.654864252E1
3.359351792E0,-1.460761238E1,8.842463565E-1,-8.528731209E0,1.693822562E1
3.369326792E0,-1.582200422E1,8.952958399E-1,-8.064698514E0,1.778135918E1
3.379302792E0,-1.521689342E1,7.493981615E-1,-8.020326333E0,1.721746431E1
3.389278792E0,-1.438264777E1,4.988746454E-1,-7.568693243E0,1.626021372E1
3.399254792E0,-1.372782160E1,5.640506347E-1,-5.797749377E0,1.491258317E1
3.409230792E0,-1.277405769E1,1.443553291E-1,-2.842118690E0,1.308720853E1
3.419206792E0,-1.143219304E1,-1.017561412E0,1.193338362E0,1.153926017E1
3.429181792E0,-9.725422364E0,-2.386996713E0,6.096524556E0,1.172387330E1
3.439157792E0,-8.129174591E0,-3.787312329E0,1.072628442E1,1.398143024E1
3.449133792E0,-7.443859867E0,-4.660081771E0,1.433577064E1,1.681195205E1
3.459109792E0,-7.416974369E0,-4.253320799E0,1.584884528E1,1.800800220E1
3.469085792E0,-7.154194651E0,-3.326923619E0,1.531753803E1,1.723014490E1
3.479061792E0,-5.599262134E0,-2.444679349E0,1.492860230E1,1.613044823E1
3.489036792E0,-2.959024996E0,-2.356972868E0,1.611124142E1,1.654941843E1
3.499012792E0,1.986220220E-1,-3.768660589E0,1.808304299E1,1.847264727E1
3.508988792E0,3.191240442E0,-5.225351404E0,1.957794332E1,2.051302458E1
3.518964792E0,5.897100588E0,-6.385700945E0,2.066639432E1,2.241992030E1
3.528940792E0,8.063927266E0,-7.976982093E0,2.067927457E1,2.358583395E1
3.538915792E0,9.376507312E0,-8.660824488E0,1.838355479E1,2.238043469E1
3.548891792E0,9.263390586E0,-7.970388188E0,1.362749273E1,1.830426320E1
3.558867792E0,8.511375504E0,-6.578360853E0,7.838183227E0,1.330997599E1
3.568843792E0,7.429923613E0,-5.036401554E0,2.364046830E0,9.282123837E0
3.578819792E0,5.921025056E0,-3.739730904E0,-2.253817459E0,7.356889158E0
3.588795792E0,4.917196122E0,-2.859531406E0,-5.230380009E0,7.727393649E0
3.598770667E0,4.522995262E0,-2.732007726E0,-6.618022517E0,8.468741015E0
3.608746667E0,4.882177733E0,-3.287767447E0,-7.050043461E0,9.184126904E0
3.618722667E0,5.726828499E0,-4.361921720E0,-7.026910706E0,1.005984094E1
3.628698667E0,6.129054955E0,-5.375809618E0,-7.344751900E0,1.097315015E1
3.638674667E0,5.989746212E0,-5.358089046E0,-8.627207676E0,1.179045759E1
3.648650667E0,5.395504210E0,-4.512441622E0,-1.091993953E1,1.298917527E1
3.658625667E0,4.745311663E0,-3.256731303E0,-1.370727799E1,1.486653125E1
3.668601667E0,4.930733596E0,-2.250855552E0,-1.570864425E1,1.661746036E1
3.678577667E0,6.097808604E0,-1.695377082E0,-1.650249616E1,1.767455665E1
3.688553667E0,7.544209197E0,-2.061753674E0,-1.662983098E1,1.837708353E1
3.698529667E0,8.386581888E0,-2.797960225E0,-1.666575627E1,1.886559751E1
3.708505667E0,8.137481146E0,-3.262739317E0,-1.693766934E1,1.907219730E1
3.718480667E0,7.312511523E0,-3.626510683E0,-1.753164120E1,1.933863614E1
3.728456667E0,6.112740054E0,-3.936233018E0,-1.825291279E1,1.964760410E1
3.738432667E0,5.250962209E0,-4.241802076E0,-1.872183961E1,1.990157701E1
3.748408667E0,5.157699119E0,-4.790533737E0,-1.830574940E1,1.961253515E1
3.758384667E0,5.753050922E0,-5.697688315E0,-1.656244767E1,1.843572401E1
3.768359667E0,6.553013173E0,-6.727757213E0,-1.255446785E1,1.567862755E1
3.778335667E0,7.153317568E0,-7.351917078E0,-7.644382526E0,1.279285821E1
3.788311667E0,7.885654432E0,-7.999457620E0,-3.976332931E0,1.191579169E1
3.798287667E0,8.536780486E0,-7.752958889E0,2.223965085E-1,1.153405622E1
3.808263667E0,9.960039554E0,-7.501824485E0,3.561302826E0,1.296775371E1
3.818239667E0,1.214094691E1,-7.432208705E0,6.702688445E0,1.573424134E1
3.828214667E0,1.371139560E1,-7.741374970E0,1.156866004E1,1.953881140E1
3.838190667E0,1.445774590E1,-9.084391528E0,1.878454983E1,2.538526931E1
3.848166667E0,1.310037326E1,-1.038562330E1,2.641683154E1,3.126227662E1
3.858142667E0,1.037299331E1,-1.047984416E1,3.047296552E1,3.385303164E1
3.868118667E0,6.861519288E0,-8.948163682E0,2.894588095E1,3.106467615E1
3.878094667E0,4.303179130E0,-5.954133160E0,2.406051122E1,2.515705175E1
3.888069667E0,2.925526882E0,-2.365289071E0,1.857860388E1,1.895568047E1
3.898045667E0,1.841329432E0,8.090495552E-1,1.413990061E1,1.428222128E1
3.908021667E0,-6.765959412E-2,2.654547906E0,1.081160231E1,1.113292176E1
3.917997667E0,-2.690451564E0,3.292686417E0,8.190537027E0,9.228499891E0
3.927973667E0,-5.353869696E0,3.433234770E0,5.860659571E0,8.648604067E0
3.937948667E0,-7.263789014E0,3.398582416E0,4.117132714E0,9.014642259E0
3.947924667E0,-8.343211920E0,3.375223959E0,2.840102570E0,9.437558187E0
3.957900667E0,-9.009413266E0,3.697429515E0,1.802982515E0,9.904103108E0
3.967876667E0,-9.679178490E0,3.981705353E0,6.689103609E-1,1.048751233E1
3.977852667E0,-1.056821079E1,4.154822112E0,-6.502571583E-1,1.137420153E1
3.987828667E0,-1.141257446E1,4.365288547E0,-1.707117999E0,1.233761937E1
3.997803667E0,-1.210077537E1,4.486856546E0,-2.450852255E0,1.313648823E1
4.007779667E0,-1.269702531E1,4.496869610E0,-3.118231815E0,1.382604996E1
4.017755667E0,-1.343574616E1,4.552250344E0,-3.819327589E0,1.469113751E1
4.027731667E0,-1.438966209E1,4.508295362E0,-4.442402211E0,1.572011576E1
4.037707667E0,-1.532079961E1,4.227698300E0,-4.892463570E0,1.662938764E1
4.047683667E0,-1.583595100E1,3.904506026E0,-5.129606756E0,1.709781790E1
4.057658667E0,-1.573662318E1,3.418293380E0,-4.736521837E0,1.678572840E1
4.067634667E0,-1.544395249E1,2.747314859E0,-3.268444446E0,1.602329981E1
4.077610667E0,-1.517227214E1,1.798266881E0,-1.501467331E0,1.535206859E1
4.087586667E0,-1.490863172E1,7.382299796E-1,4.748260707E-1,1.493444820E1
4.097562667E0,-1.415711715E1,-5.211111680E-1,2.695017947E0,1.442077129E1
4.107538667E0,-1.275821291E1,-1.997052771E0,5.172643433E0,1.391101925E1
4.117513667E0,-1.078171135E1,-3.222844057E0,8.511532209E0,1.410950757E1
4.127489667E0,-8.537084541E0,-4.476812491E0,1.209933228E1,1.546989024E1
4.137465667E0,-6.764982927E0,-5.372853266E0,1.479382047E1,1.713154022E1
4.147441667E0,-5.841064382E0,-5.526870680E0,1.564598081E1,1.759150500E1
4.157417667E0,-5.435807898E0,-5.312910535E0,1.465922458E1,1.651265851E1
4.167393667E0,-4.940846356E0,-4.751374349E0,1.300612316E1,1.470193050E1
4.177368667E0,-3.705914994E0,-3.819892723E0,1.278309632E1,1.384676633E1
4.187344667E0,-1.755159599E0,-4.463256598E0,1.428787727E1,1.507131983E1
4.197320667E0,4.125871378E-1,-6.294297270E0,1.520356060E1,1.646015374E1
4.207296667E0,2.565275248E0,-7.463736892E0,1.577645207E1,1.764042079E1
4.217272667E0,5.154215348E0,-8.272391029E0,1.635352197E1,1.903775381E1
4.227248667E0,7.838601303E0,-9.149968051E0,1.664279192E1,2.054624317E1
4.237223667E0,9.762137032E0,-9.364498301E0,1.479028992E1,2.004359807E1
4.247199667E0,1.036573341E1,-8.594245752E0,1.065075009E1,1.716822549E1
4.257175667E0,9.939113538E0,-7.692759465E0,5.586234537E0,1.375392825E1
4.267151667E0,8.808797636E0,-6.866619229E0,5.865271854E-1,1.118433680E1
4.277127667E0,7.791337674E0,-5.828844286E0,-3.398772451E0,1.030689200E1
4.287102667E0,7.142033612E0,-5.108276113E0,-5.932973841E0,1.059732549E1
4.297078667E0,6.581407253E0,-5.034513488E0,-7.267226592E0,1.102151668E1
4.307054667E0,6.398810987E0,-5.252152702E0,-7.972155216E0,1.149283032E1
4.317030667E0,6.520519027E0,-5.796395747E0,-8.554734946E0,1.221879135E1
4.327006667E0,6.559326412E0,-6.139847746E0,-9.353614878E0,1.296968020E1
4.336982667E0,6.455624288E0,-5.565830094E0,-1.071822228E1,1.369429949E1
4.346957667E0,6.562334805E0,-4.572988663E0,-1.227196664E1,1.464846848E1
4.356933667E0,7.003444076E0,-3.931218154E0,-1.367146847E1,1.585596907E1
4.366909667E0,7.566629176E0,-3.262562732E0,-1.486220248E1,1.699362396E1
4.376885667E0,8.015925134E0,-3.023192925E0,-1.550230888E1,1.771203917E1
4.386861667E0,8.127565438E0,-3.353397765E0,-1.562473203E1,1.792860417E1
4.396837667E0,8.518115004E0,-3.451388328E0,-1.594205224E1,1.840161390E1
4.406812667E0,8.496589649E0,-3.666493944E0,-1.625683358E1,1.870614476E1
4.416788667E0,8.023845187E0,-3.955786692E0,-1.653773149E1,1.880231110E1
4.426764667E0,7.415643543E0,-4.205984665E0,-1.677448057E1,1.881662229E1
4.436740667E0,6.916196601E0,-4.480348594E0,-1.661826869E1,1.854923592E1
4.446716667E0,6.627776842E0,-4.953613751E0,-1.560376742E1,1.766191589E1
4.456692667E0,6.641025463E0,-5.568915669E0,-1.323738522E1,1.582227570E1
4.466667667E0,6.622630123E0,-6.036334487E0,-1.016712922E1,1.355238283E1
4.476643667E0,7.137733569E0,-6.527626902E0,-7.102248572E0,1.199996201E1
4.486619667E0,7.825367884E0,-6.635885761E0,-3.720247689E0,1.091382633E1
4.496595667E0,8.951532848E0,-6.203367219E0,-1.274398897E0,1.096520851E1
4.506571667E0,1.010966395E1,-5.778351824E0,6.007616472E-1,1.165999870E1
4.516547667E0,1.117000623E1,-5.193805091E0,3.595330113E0,1.283242179E1
4.526522667E0,1.228795878E1,-5.801033174E0,9.061829461E0,1.633287084E1
4.536498667E0,1.270127272E1,-7.706851255E0,1.683255512E1,2.245112017E1
4.546474667E0,1.247726706E1,-9.014723123E0,2.539921253E1,2.969961992E1
4.556450667E0,1.030335531E1,-9.326268620E0,3.018604264E1,3.323154507E1
4.566426667E0,6.999180286E0,-7.746821651E0,2.979614329E1,3.157232847E1
4.576401667E0,4.065925139E0,-4.903517146E0,2.610709049E1,2.687296786E1
4.586377667E0,2.069843882E0,-2.133884488E0,2.158237703E1,2.178615879E1
4.596353667E0,4.041580841E-1,1.663342819E-1,1.804512731E1,1.805041912E1
4.606329292E0,-1.318457083E0,1.667977614E0,1.536923794E1,1.551560354E1
4.616305292E0,-3.065757732E0,2.457370146E0,1.297493177E1,1.355678402E1
4.626281292E0,-4.859586430E0,2.881953431E0,1.019267805E1,1.165383720E1
4.636256292E0,-6.568593664E0,3.063822888E0,7.148772528E0,1.018029381E1
4.646232292E0,-7.954732268E0,3.141175704E0,4.370519466E0,9.604488048E0
4.656208292E0,-9.134243719E0,3.348753029E0,1.990352447E0,9.930259716E0
4.666184292E0,-9.980186720E0,3.790792007E0,-7.809892058E-2,1.067615710E1
4.676160292E0,-1.058464849E1,4.283326078E0,-1.946615274E0,1.158321962E1
4.686136292E0,-1.100455341E1,4.746670849E0,-3.326096823E0,1.243760427E1
4.696111292E0,-1.153808845E1,4.897928085E0,-4.134682547E0,1.319896907E1
4.706087292E0,-1.257855604E1,4.756932420E0,-4.692370681E0,1.424313240E1
4.716063292E0,-1.409424088E1,4.741152539E0,-5.079703694E0,1.571399195E1
4.726039292E0,-1.565729050E1,4.820665024E0,-5.313015785E0,1.722259254E1
4.736015292E0,-1.698959262E1,4.760696565E0,-5.293189046E0,1.842086695E1
4.745991292E0,-1.770000008E1,4.546432364E0,-5.318308100E0,1.903272054E1
4.755966292E0,-1.774651000E1,4.122847783E0,-5.178894106E0,1.894089320E1
4.765942292E0,-1.744648352E1,3.654251043E0,-4.004692512E0,1.826939791E1
4.775918292E0,-1.612079928E1,2.863173344E0,-2.432145842E0,1.655274190E1
4.785894292E0,-1.450500310E1,1.753563602E0,-2.759260136E-1,1.461322125E1
4.795870292E0,-1.263749013E1,6.730265084E-1,2.495201046E0,1.289903677E1
4.805846292E0,-1.050351486E1,-5.523838314E-1,6.222029777E0,1.222058128E1
4.815821292E0,-8.163123525E0,-1.602408984E0,1.008283459E1,1.307164311E1
4.825797292E0,-6.108252901E0,-2.071001631E0,1.317042524E1,1.466492081E1
4.835773292E0,-4.922565036E0,-2.297636201E0,1.469908856E1,1.567080033E1
4.845749292E0,-4.236905033E0,-2.383943151E0,1.427476313E1,1.507990092E1
4.855725292E0,-2.886359016E0,-2.321920272E0,1.388317042E1,1.436888316E1
4.865701292E0,-3.899227452E-1,-2.629384413E0,1.511396488E1,1.534593225E1
4.875676292E0,2.191418898E0,-4.251398819E0,1.651597867E1,1.719459974E1
4.885652292E0,4.428908007E0,-6.272274317E0,1.659846067E1,1.828839927E1
4.895628292E0,6.075648826E0,-7.292191864E0,1.612220261E1,1.870868750E1
4.905604292E0,7.334782398E0,-7.935316004E0,1.483618822E1,1.835431159E1
4.915580292E0,8.324415461E0,-8.226366425E0,1.225441330E1,1.694519527E1
4.925555292E0,9.122346389E0,-7.804479876E0,9.006176832E0,1.500794226E1
4.935531292E0,9.617453527E0,-7.253613689E0,5.381070943E0,1.319341686E1
4.945507292E0,8.813590014E0,-6.848279437E0,1.950728790E0,1.133065060E1
4.955483292E0,6.934625856E0,-6.250308666E0,-9.193319893E-1,9.380861660E0
4.965459292E0,5.370897957E0,-5.702452042E0,-3.157540891E0,8.445979436E0
4.975435292E0,4.602238775E0,-5.380324838E0,-4.642676949E0,8.466578196E0
4.985410292E0,4.671328890E0,-4.875236503E0,-5.531553715E0,8.728535448E0
4.995386292E0,5.281701606E0,-4.497882348E0,-6.090818843E0,9.231759943E0
5.005362292E0,6.067558619E0,-4.475602702E0,-6.663225587E0,1.006205060E1
5.015338292E0,6.961580350E0,-4.279622744E0,-7.073449865E0,1.080798153E1
5.025314292E0,7.510728625E0,-4.006827038E0,-7.318119587E0,1.122588890E1
5.035290292E0,7.780475301E0,-3.603683153E0,-7.686642108E0,1.151550238E1
5.045265292E0,7.909937918E0,-2.778504492E0,-8.268947019E0,1.177551230E1
5.055241292E0,8.066166165E0,-1.956389187E0,-9.061134812E0,1.228798842E1
5.065217292E0,8.104244403E0,-1.641700519E0,-9.755260121E0,1.278823905E1
5.075193292E0,8.467931861E0,-1.928840908E0,-1.075922880E1,1.382704964E1
5.085169292E0,8.657423748E0,-2.144593517E0,-1.182616907E1,1.481244552E1
5.095145292E0,8.840674902E0,-2.120260622E0,-1.301857305E1,1.587879977E1
5.105120292E0,8.462709712E0,-2.445224017E0,-1.401865743E1,1.655654953E1
5.115096292E0,7.493355963E0,-3.281886317E0,-1.484148931E1,1.694670960E1
5.125072292E0,6.156660245E0,-4.341200649E0,-1.515230975E1,1.692167188E1
5.135048292E0,5.008805619E0,-5.383724994E0,-1.458393583E1,1.633290583E1
5.145024292E0,4.582595054E0,-6.269026773E0,-1.302913429E1,1.516770301E1
5.155000292E0,4.704452198E0,-6.640196328E0,-9.725407746E0,1.268099498E1
5.164975292E0,5.444387518E0,-6.585405579E0,-6.643948486E0,1.082363033E1
5.174951292E0,6.449716846E0,-6.339319076E0,-3.219112072E0,9.599400829E0
5.184927292E0,7.376791719E0,-5.565906692E0,-3.010509145E-1,9.245918290E0
5.194903292E0,7.959364432E0,-4.502132104E0,1.502369556E0,9.267027028E0
5.204879292E0,7.961461828E0,-3.496908025E0,3.170242798E0,9.255467550E0
5.214855292E0,7.432531471E0,-3.177091934E0,6.466098990E0,1.035117739E1
5.224830292E0,6.828681909E0,-4.191442055E0,1.101126017E1,1.361789021E1
5.234806292E0,6.217023391E0,-5.207624400E0,1.659995054E1,1.847509376E1
5.244782292E0,6.130378765E0,-5.427134723E0,2.214094517E1,2.360628704E1
5.254758292E0,5.449886824E0,-5.216056670E0,2.557719944E1,2.666648917E1
5.264734292E0,3.580234649E0,-4.337178642E0,2.591543748E1,2.651865567E1
5.274709292E0,1.345378833E0,-2.514846814E0,2.363656002E1,2.380801269E1
5.284685292E0,-6.544399640E-1,-4.614369701E-1,2.011705309E1,2.013298390E1
5.294661292E0,-2.547856685E0,1.194021024E0,1.681457493E1,1.704837793E1
5.304637292E0,-4.039624363E0,2.612025199E0,1.374958026E1,1.456681839E1
5.314613292E0,-5.128421525E0,3.593059639E0,1.071240313E1,1.240831841E1
5.324589292E0,-5.937805395E0,4.009025298E0,7.481589026E0,1.035876398E1
5.334564292E0,-6.930046901E0,4.220181704E0,3.952223107E0,9.025272913E0
5.344540292E0,-8.127229807E0,4.598728691E0,2.750939548E-1,9.342154281E0
5.354516292E0,-8.939092312E0,4.859257232E0,-2.891590812E0,1.057738387E1
5.364492292E0,-9.427855806E0,4.862501267E0,-5.000173375E0,1.172732354E1
5.374468292E0,-9.792475310E0,4.707811131E0,-6.029602003E0,1.242626890E1
5.384444292E0,-1.028990789E1,4.438167658E0,-6.273182974E0,1.284259947E1
5.394419292E0,-1.084962208E1,3.874175057E0,-5.858196139E0,1.292447266E1
5.404395292E0,-1.137944414E1,3.378083248E0,-5.206956648E0,1.296208289E1
5.414371292E0,-1.174870282E1,3.160063380E0,-4.696968346E0,1.304145430E1
5.424347292E0,-1.182503588E1,2.820265891E0,-4.938643709E0,1.312156908E1
5.434323292E0,-1.177171278E1,2.427369106E0,-6.127070410E0,1.349097233E1
5.444299292E0,-1.194073708E1,2.235209719E0,-7.182809170E0,1.411276415E1
5.454274292E0,-1.191295345E1,2.068996620E0,-9.163681526E0,1.517142927E1
5.464250292E0,-1.211898243E1,1.921059726E0,-8.456915122E0,1.490233602E1
5.474226292E0,-1.148970157E1,1.194824139E0,-4.954045860E0,1.256914545E1
5.484202292E0,-9.721847377E0,-3.457177949E-1,4.010564286E-1,9.736256132E0
5.494178292E0,-7.739288099E0,-1.766311117E0,6.401821718E0,1.019802709E1
5.504154292E0,-5.796248982E0,-3.607278606E0,9.846589537E0,1.198183153E1
5.514129292E0,-4.291952183E0,-4.928016980E0,1.089036899E1,1.270064335E1
5.524105292E0,-3.817913440E0,-5.169200592E0,1.126018667E1,1.296491039E1
5.534081292E0,-4.155609732E0,-4.428384681E0,1.092044005E1,1.249542692E1
5.544057292E0,-5.244814446E0,-3.691838992E0,9.945381753E0,1.183420348E1
5.554033292E0,-6.145807813E0,-3.711069900E0,7.386919681E0,1.030095024E1
5.564009292E0,-5.457419207E0,-3.517199325E0,5.335562063E0,8.403709778E0
5.573984292E0,-2.031628673E0,-3.279704429E0,6.094930020E0,7.213331280E0
5.583960292E0,3.042584047E0,-3.435136870E0,9.009019164E0,1.011038621E1
5.593936292E0,7.456450092E0,-3.738235479E0,1.228077606E1,1.484555533E1
5.603912333E0,8.767794036E0,-4.933174809E0,1.406178766E1,1.729000573E1
5.613888333E0,7.720201033E0,-6.792820936E0,1.328303560E1,1.679830214E1
5.623864333E0,6.110014082E0,-8.004839982E0,1.051367849E1,1.455840550E1
5.633839333E0,5.279838683E0,-7.023455586E0,6.778117527E0,1.109722948E1
5.643815333E0,5.800287069E0,-6.007813523E0,2.132162045E0,8.618774182E0
5.653791333E0,7.457752267E0,-4.841361828E0,-2.051058825E0,9.124894275E0
5.663767333E0,7.713112453E0,-3.964575350E0,-2.719147652E0,9.088659162E0
5.673743333E0,7.434338261E0,-3.179468242E0,-3.196616079E0,8.694639615E0
5.683718333E0,6.400268698E0,-2.699985449E0,-3.159802594E0,7.631363788E0
5.693694333E0,6.429712937E0,-2.648998313E0,-3.918972915E0,7.982277195E0
5.703670333E0,6.324378855E0,-2.971282222E0,-5.432370905E0,8.850815759E0
5.713646333E0,5.589693750E0,-2.328147849E0,-6.303912431E0,8.740953070E0
5.723622333E0,5.205298963E0,-1.365661654E0,-6.470867980E0,8.416192812E0
5.733598333E0,4.915640178E0,-1.326152311E0,-6.005246596E0,7.873067064E0
5.743573333E0,4.891187415E0,-1.057858375E0,-5.744320444E0,7.618398522E0
5.753549333E0,4.750989602E0,-7.087202516E-1,-4.407072750E0,6.518932184E0
5.763525333E0,5.094016508E0,-1.563917641E0,-4.580017017E0,7.026478382E0
5.773501333E0,4.558176497E0,-2.354747711E0,-3.922461948E0,6.458135760E0
5.783477333E0,3.992328866E0,-2.330731442E0,-3.969987532E0,6.093586779E0
5.793453333E0,3.408580570E0,-2.115253944E0,-4.834148118E0,6.281855521E0
5.803428333E0,3.355531414E0,-2.278685375E0,-6.118805371E0,7.341101912E0
5.813404333E0,5.166202140E0,-8.590328702E-1,-7.970741944E0,9.537311422E0
5.823380333E0,6.000968773E0,-1.767056637E0,-7.973652688E0,1.013475469E1
5.833356333E0,5.045870535E0,-3.428640321E0,-8.595252643E0,1.054014952E1
5.843332333E0,3.669490057E0,-3.691149021E0,-7.924315637E0,9.480744522E0
5.853308333E0,4.102772537E0,-3.982857839E0,-4.614335495E0,7.347652082E0
5.863283333E0,7.032017080E0,-3.932864145E0,-2.736700408E0,8.509184081E0
5.873259333E0,9.455930042E0,-1.595394372E0,6.062841085E0,1.134539282E1
5.883235333E0,1.094022118E1,1.940340042E0,1.149302279E1,1.598571024E1
5.893211333E0,8.601165347E0,2.487348821E0,8.290873493E0,1.220268547E1
5.903187333E0,4.613433854E0,1.041781748E0,5.696787844E0,7.404219937E0
5.913163333E0,2.419493491E0,-7.903283787E-1,2.409795445E0,3.505093692E0
5.923138333E0,2.524842921E0,-1.194634105E0,1.322718533E0,3.090560910E0
5.933114333E0,2.132326936E0,-1.017871606E0,3.084727854E-1,2.382863032E0
5.943090333E0,4.014718732E-1,4.115913570E-2,5.489021069E-1,6.812982184E-1
5.953066333E0,-2.627850981E0,2.988545541E0,1.254625953E0,4.172660004E0
5.963042333E0,-5.363402411E0,5.027588046E0,6.050340323E0,9.520994959E0
5.973017333E0,-3.236644948E0,2.297238298E0,9.646918817E0,1.043150118E1
5.982993333E0,3.765744290E-1,-1.880744051E0,8.385049333E0,8.601631171E0
5.992969333E0,1.650660500E0,-2.478303763E0,7.970868244E0,8.508901821E0
6.002945333E0,7.358685815E-1,-1.372484478E0,7.918703479E0,8.070382953E0
6.012921333E0,-1.084989602E0,-1.198156175E0,6.942508487E0,7.128197861E0
6.022897333E0,-2.937715696E0,-1.684594524E0,5.535441529E0,6.489155965E0
6.032873333E0,-3.771734762E0,-2.262110565E0,3.203897032E0,5.441331043E0
6.042848333E0,-3.608491611E0,-2.049827109E0,-1.209046322E-1,4.151821385E0
6.052824333E0,-2.969216693E0,-1.248193431E0,-2.691567505E0,4.197471887E0
6.062800333E0,-2.952586042E0,-2.337941936E-1,-4.440678452E0,5.337794411E0
6.072776333E0,-3.272032882E0,-1.380191401E-1,-5.135815330E0,6.091128595E0
6.082752333E0,-3.912538931E0,-1.046556292E0,-5.713790962E0,7.003616788E0
6.092727333E0,-4.215758578E0,-9.614848593E-1,-4.814305592E0,6.471059562E0
6.102703333E0,-3.557319703E0,-5.638630852E-1,-3.577745197E0,5.076684523E0
6.112679333E0,-2.705843482E0,-7.782550478E-1,-2.350660214E0,3.667815878E0
6.122655333E0,-1.992735187E0,-1.035579607E0,-1.998539718E0,3.006256751E0
6.132631333E0,-1.775198154E0,-7.713983104E-1,-2.678680242E0,3.304801306E0
6.142607333E0,-2.149957753E0,-6.817105007E-1,-3.537546174E0,4.195388001E0
6.152582333E0,-2.929254482E0,-8.034945542E-1,-4.447770540E0,5.385981628E0
6.162558333E0,-3.963916368E0,-1.086892432E0,-5.919349244E0,7.206432099E0
6.172534333E0,-4.333987524E0,-1.345192891E0,-6.930928077E0,8.284368158E0
6.182510333E0,-4.660333201E0,-1.752252949E0,-6.830453616E0,8.452466654E0
6.192486333E0,-5.060377477E0,-1.703924834E0,-5.911923864E0,7.966280426E0
6.202462333E0,-5.688302364E0,-1.328297069E0,-4.173463621E0,7.179063691E0
6.212437333E0,-6.130478168E0,-7.150630188E-1,-1.701299434E0,6.402225976E0
6.222413333E0,-4.542621149E0,4.450345069E-1,-4.524575472E-3,4.564371050E0
6.232389333E0,-2.945099852E0,1.083754816E0,7.458608884E-1,3.225592365E0
6.242365333E0,-2.490860074E0,9.270128918E-1,1.174606222E0,2.905759210E0
6.252341333E0,-3.357206933E0,6.437959850E-1,1.677795966E0,3.807927385E0
6.262317333E0,-5.576736320E0,9.422948822E-1,3.801358511E0,6.814560452E0
6.272292333E0,-7.058874511E0,7.996988341E-1,6.925484319E0,9.921167302E0
6.282268333E0,-6.211888366E0,1.218128217E0,9.063864293E0,1.105554292E1
6.292244333E0,-6.491605130E0,8.200822279E-1,9.796406393E0,1.178062181E1
6.302220333E0,-5.412944115E0,9.796977666E-1,8.101555853E0,9.792598171E0
6.312196333E0,-4.284152582E0,1.350968771E0,5.929031063E0,7.438581136E0
6.322172333E0,-4.321925011E0,1.647638952E0,4.013336450E0,6.123774929E0
6.332147333E0,-4.346754627E0,2.425936099E0,2.995108164E0,5.809484888E0
6.342123333E0,-4.166791363E0,2.516206584E0,2.944121028E0,5.688698837E0
6.352099333E0,-3.174335849E0,1.759450871E0,3.407670743E0,4.978382804E0
6.362075333E0,-1.027961415E0,3.496675891E-1,4.288395907E0,4.423721459E0
6.372051333E0,1.875871858E0,-7.004005408E-1,4.838760987E0,5.236703547E0
6.382027333E0,3.908334491E0,-8.156164169E-1,4.893999633E0,6.315975066E0
6.392002333E0,5.329132465E0,-8.572032765E-1,3.941141464E0,6.683340955E0
6.401978333E0,6.685902259E0,-1.246960545E0,2.256293755E0,7.165686368E0
6.411954333E0,7.958238258E0,-1.777676350E0,2.405234617E-1,8.157912779E0
6.421930333E0,7.692929619E0,-1.820334419E0,-1.533490777E0,8.052724848E0
6.431906333E0,8.260127079E0,-1.903578013E0,-3.113409616E0,9.030317162E0
6.441882333E0,8.244353045E0,-2.142185342E0,-4.191911586E0,9.493705173E0
6.451857333E0,8.125805426E0,-2.545273970E0,-4.813947158E0,9.781677803E0
6.461833333E0,7.965878815E0,-2.141516128E0,-5.279344593E0,9.793507847E0
6.471809333E0,9.060345438E0,-2.684502607E0,-5.771019416E0,1.107253714E1
6.481785333E0,1.046732059E1,-3.032692312E0,-5.682541103E0,1.229037414E1
6.491761333E0,1.078350293E1,-2.366466700E0,-5.817445139E0,1.247905317E1
6.501737333E0,1.110188266E1,-2.282707967E0,-6.337465509E0,1.298560831E1
6.511712333E0,1.147320775E1,-2.531153821E0,-6.532200009E0,1.344287442E1
6.521688333E0,1.159916028E1,-2.700879781E0,-5.692339867E0,1.319992439E1
6.531664333E0,1.143612588E1,-2.941111466E0,-4.149789999E0,1.251622422E1
6.541640333E0,1.067463480E1,-3.397526409E0,-1.574277445E0,1.131235445E1
6.551616333E0,9.779422570E0,-3.905170562E0,1.599578932E0,1.065110866E1
6.561592333E0,8.851328529E0,-3.848658977E0,4.139594209E0,1.050211564E1
6.571567333E0,7.906569922E0,-3.092043890E0,4.536590331E0,9.625758940E0
6.581543333E0,6.530445260E0,-1.965170243E0,2.977436709E0,7.441353286E0
6.591519333E0,4.433188461E0,-5.563602304E-1,1.364289898E0,4.671614664E0
6.601495708E0,2.575578627E0,2.471495265E-1,1.812831565E0,3.159279417E0
6.611471708E0,1.382643577E0,5.648650056E-1,5.519984415E0,5.718479140E0
6.621446708E0,7.887655641E-1,9.560986966E-1,9.785372112E0,9.863558344E0
6.631422708E0,-7.372768834E-2,5.402605069E-1,1.350179163E1,1.351279743E1
6.641398708E0,-4.527151170E-1,7.558362383E-1,1.509550639E1,1.512119547E1
6.651374708E0,-1.330640341E0,1.624022048E0,1.382869776E1,1.398717030E1
6.661350708E0,-2.641802437E0,2.276480098E0,1.216637411E1,1.265630834E1
6.671326708E0,-4.240977327E0,2.274941111E0,1.099605507E1,1.200310263E1
6.681301708E0,-6.226325727E0,1.985276771E0,9.145545217E0,1.124052727E1
6.691277708E0,-7.917710037E0,1.843773860E0,6.326082149E0,1.030091984E1
6.701253708E0,-8.981495150E0,1.488848747E0,2.943314697E0,9.568021067E0
6.711229708E0,-9.363346399E0,6.410621193E-1,1.745066428E-1,9.386888142E0
6.721205708E0,-9.111236095E0,-1.797252828E-1,-1.584042880E0,9.249654923E0
6.731181708E0,-8.465828032E0,-8.138175210E-1,-2.832490080E0,8.964125350E0
6.741156708E0,-7.479299256E0,-1.362544211E0,-3.804506067E0,8.501218178E0
6.751132708E0,-6.408255994E0,-1.786999151E0,-5.064239563E0,8.360958869E0
6.761108708E0,-5.923796051E0,-2.106381378E0,-6.126185142E0,8.778288362E0
6.771084708E0,-5.522883464E0,-2.661880899E0,-6.583471904E0,8.996107714E0
6.781060708E0,-4.792781407E0,-3.064887081E0,-6.433018368E0,8.587666258E0
6.791036708E0,-4.271586916E0,-3.286576954E0,-6.522179636E0,8.460902437E0
6.801011708E0,-3.930551571E0,-3.644169567E0,-6.867966428E0,8.711955598E0
6.810987708E0,-3.889485406E0,-3.861239262E0,-7.184197299E0,9.036036531E0
6.820963708E0,-3.921296014E0,-3.981957952E0,-7.302417474E0,9.195534380E0
6.830939708E0,-4.267912818E0,-3.573741316E0,-7.481404254E0,9.325133587E0
6.840915708E0,-4.772398013E0,-3.397027057E0,-7.808992757E0,9.761964121E0
6.850891708E0,-4.825540140E0,-3.252244735E0,-7.853698813E0,9.774636490E0
6.860866708E0,-4.603284842E0,-3.157810155E0,-7.683989226E0,9.497667437E0
6.870842708E0,-3.892393811E0,-3.451504688E0,-6.371004553E0,8.225163415E0
6.880818708E0,-3.515755355E0,-3.619504842E0,-3.616841435E0,6.208292276E0
6.890794708E0,-3.465856094E0,-3.805516758E0,-3.623613095E-1,5.159982750E0
6.900770708E0,-3.283777015E0,-3.436506287E0,2.230656638E0,5.250580538E0
6.910746708E0,-3.364342875E0,-2.102565193E0,2.639462966E0,4.765117850E0
6.920721708E0,-3.487613876E0,-8.803790081E-1,1.390068517E0,3.856268692E0
6.930697708E0,-3.727707860E0,-1.997671992E-1,5.178001821E-1,3.768796870E0
6.940673708E0,-3.858198709E0,4.010289466E-1,1.533151054E0,4.170979939E0
6.950649708E0,-4.169644804E0,5.630652326E-1,5.196270862E0,6.686120782E0
6.960625708E0,-4.307015488E0,8.636963171E-1,8.584386762E0,9.643031153E0
6.970601708E0,-3.679981424E0,1.235511405E0,9.439171337E0,1.020620925E1
6.980576708E0,-2.427257570E0,2.061960958E0,8.543593662E0,9.117908475E0
6.990552708E0,-2.059109856E0,3.170017680E0,6.439227526E0,7.466766142E0
7.000528708E0,-2.138318578E0,3.672023363E0,4.025328505E0,5.853155687E0
7.010504708E0,-2.262423099E0,3.469599189E0,3.232371218E0,5.254036591E0
7.020480708E0,-1.718653093E0,2.371933554E0,4.641940200E0,5.488847425E0
7.030456708E0,-3.942447147E-1,9.354662114E-1,7.516825517E0,7.585063729E0
7.040431708E0,6.907172593E-1,-1.674452528E-1,9.661880672E0,9.687985671E0
7.050407708E0,1.929713605E0,-1.204084667E0,9.899081161E0,1.015703807E1
7.060383708E0,3.566896565E0,-1.412511593E0,8.705288470E0,9.513148136E0
7.070359708E0,4.974845576E0,-1.286980936E0,6.322874367E0,8.147646819E0
7.080335708E0,6.318307106E0,-1.186550622E0,3.590592699E0,7.363508878E0
7.090311708E0,7.693299748E0,-7.177477679E-1,7.652982026E-1,7.764515710E0
7.100286708E0,8.434926082E0,-5.539324665E-1,-1.495065799E0,8.584290357E0
7.110262708E0,9.229496616E0,-4.557200012E-1,-3.942165311E0,1.004648973E1
7.120238708E0,1.004003297E1,-9.280566198E-1,-5.032204422E0,1.126883457E1
7.130214708E0,1.071433271E1,-1.547139055E0,-5.225529744E0,1.202067909E1
7.140190708E0,1.066299416E1,-2.215932180E0,-4.702342522E0,1.186262303E1
7.150166708E0,1.039394973E1,-2.616805298E0,-3.658547870E0,1.132549485E1
7.160141708E0,1.058125242E1,-2.783566427E0,-3.051802767E0,1.135890158E1
7.170117708E0,1.087025223E1,-2.526650881E0,-3.315876474E0,1.164222423E1
7.180093708E0,1.115492509E1,-2.107713667E0,-4.155714982E0,1.208903543E1
7.190069708E0,1.148041503E1,-1.861211427E0,-5.153730029E0,1.272104439E1
7.200045708E0,1.158848327E1,-1.917025439E0,-5.611799149E0,1.301768876E1
7.210020708E0,1.136009921E1,-2.176355301E0,-4.606203187E0,1.245011985E1
7.219996708E0,1.033772992E1,-2.751789733E0,-1.576587095E0,1.081326193E1
7.229972708E0,8.593303766E0,-3.224549983E0,2.798545239E0,9.595543114E0
7.239948708E0,6.514210466E0,-3.110366725E0,6.076213667E0,9.435554657E0
7.249924708E0,3.725374236E0,-2.336405872E0,7.069857920E0,8.325869120E0
7.259900708E0,1.536909205E0,-1.263580964E0,6.024828336E0,6.344862744E0
7.269875708E0,1.092644338E-1,-5.485653073E-1,4.842813692E0,4.875008417E0
7.279851708E0,-4.675812243E-1,-5.125669241E-2,5.167773871E0,5.189137331E0
7.289827708E0,-6.285859153E-1,7.162125814E-1,7.475440094E0,7.535932942E0
7.299803708E0,-1.312714240E0,7.677177805E-1,1.129246797E1,1.139440399E1
7.309779708E0,-1.791441280E0,9.611401659E-1,1.403883734E1,1.418527427E1
7.319755708E0,-1.736163458E0,1.877581877E0,1.373960608E1,1.397556269E1
7.329730708E0,-1.804697941E0,2.452115253E0,1.113507262E1,1.154381420E1
7.339706708E0,-1.818096982E0,2.496841190E0,8.844346368E0,9.368145774E0
7.349682708E0,-1.867420731E0,2.083872814E0,8.166170509E0,8.632272406E0
7.359658708E0,-2.927363493E0,1.379238889E0,7.191483514E0,7.886012431E0
7.369634708E0,-5.283175104E0,8.409804690E-1,5.136459108E0,7.416360260E0
7.379610708E0,-7.507422609E0,3.248654544E-1,2.676747737E0,7.976961216E0
7.389585708E0,-8.408375046E0,-4.345887485E-1,1.026649446E0,8.481960114E0
7.399561708E0,-8.119391030E0,-8.947418162E-1,-4.548303473E-1,8.181194550E0
7.409537708E0,-7.803589929E0,-1.388598820E0,-2.380993230E0,8.276071002E0
7.419513708E0,-6.799722989E0,-1.583813377E0,-4.066137977E0,8.079491048E0
7.429489708E0,-5.358108342E0,-1.664661366E0,-5.319596241E0,7.731657432E0
7.439465708E0,-3.860584373E0,-2.075370670E0,-6.169850394E0,7.568244777E0
7.449440708E0,-3.006404985E0,-2.507277886E0,-6.482357174E0,7.572705451E0
7.459416708E0,-2.611225592E0,-2.993406917E0,-6.332681901E0,7.475415984E0
7.469392708E0,-2.637214127E0,-3.541852064E0,-6.397605291E0,7.773607133E0
7.479368708E0,-2.876795310E0,-3.954422244E0,-6.968746698E0,8.513332901E0
7.489344708E0,-2.928173332E0,-4.252409803E0,-7.620549275E0,9.204887802E0
7.499320708E0,-3.476716128E0,-4.692270108E0,-7.971350639E0,9.881669131E0
7.509295708E0,-3.883917688E0,-4.868641428E0,-8.727779785E0,1.072206258E1
7.519271708E0,-4.212632072E0,-5.297496690E0,-8.586559002E0,1.093337714E1
7.529247708E0,-3.883409564E0,-5.713927202E0,-7.690777844E0,1.033817671E1
7.539223708E0,-2.876642113E0,-5.935316820E0,-6.738797926E0,9.429446065E0
7.549199708E0,-1.826634502E0,-5.800501662E0,-5.815835400E0,8.414651183E0
7.559175708E0,-1.111589317E0,-5.499616808E0,-4.765611734E0,7.361553576E0
7.569150708E0,-1.367063524E0,-4.969229325E0,-3.187623646E0,6.059954395E0
7.579126708E0,-2.502238463E0,-4.415275809E0,-6.174829298E-1,5.112449800E0
7.589102708E0,-3.499669080E0,-3.568883157E0,2.317378448E0,5.509523893E0
7.599078708E0,-4.069430544E0,-1.958144814E0,4.041299590E0,6.060255642E0
7.609054292E0,-4.204441000E0,2.547450596E-1,2.537499804E0,4.917430673E0
7.619030292E0,-4.625445204E0,2.170038553E0,2.880882221E-1,5.117304514E0
7.629005292E0,-5.097323109E0,3.332598926E0,-6.939124703E-2,6.090462513E0
7.638981292E0,-5.384647100E0,3.662777746E0,-1.714590740E-1,6.514580832E0
7.648957292E0,-8.091748903E0,3.711547033E0,2.466702302E0,9.237781223E0
7.658933292E0,-8.322587621E0,3.472908128E0,7.558800339E0,1.176698849E1
7.668909292E0,-7.953672752E0,3.206535296E0,1.031034157E1,1.341066449E1
7.678885292E0,-8.031137835E0,3.070066545E0,1.124201118E1,1.415299611E1
7.688860292E0,-7.255977134E0,2.523872284E0,1.166835038E1,1.397030909E1
7.698836292E0,-6.083809785E0,1.941966738E0,1.219211005E1,1.376341250E1
7.708812292E0,-3.987229802E0,1.633672292E0,1.152547484E1,1.230461121E1