"Time (s)","Linear Acceleration x (m/s^2)","Linear Acceleration y (m/s^2)","Linear Acceleration z (m/s^2)","Absolute acceleration (m/s^2)"
-8.826250269E-4,1.159635157E0,-1.105305022E-1,-4.911357093E-1,1.264193409E0
9.093374974E-3,1.111228251E0,-1.095651269E-1,-1.427112383E-1,1.125699445E0
1.906937498E-2,1.150186057E0,-1.236642256E-1,2.303393662E-1,1.179524069E0
2.904537498E-2,1.148016009E0,-1.044064209E-1,3.359535295E-1,1.200710719E0
3.902037500E-2,1.224187687E0,-4.773725331E-2,2.909586203E-1,1.259194686E0
4.899637497E-2,1.171826456E0,-2.505093366E-2,1.981703246E-1,1.188728846E0
5.897237497E-2,1.062473729E0,-2.064929590E-2,6.721432865E-2,1.064797907E0
6.894837497E-2,9.887016016E-1,2.913930684E-2,-5.950126648E-3,9.891488059E-1
7.892437498E-2,9.228096208E-1,7.669807389E-2,-6.969647169E-2,9.286106767E-1
8.890037498E-2,8.520360920E-1,8.154614657E-2,-1.514557493E-1,8.692261616E-1
9.887637498E-2,8.066783631E-1,9.204043686E-2,-1.833020246E-1,8.323467160E-1
1.088523750E-1,7.552010845E-1,1.042051305E-1,-8.245334208E-2,7.668024132E-1
1.188283750E-1,7.776426981E-1,1.251839170E-1,-3.914476991E-2,7.886263323E-1
1.288043750E-1,6.945131256E-1,1.017674263E-1,-9.456000209E-2,7.082702059E-1
1.387803750E-1,5.504941575E-1,7.346339419E-2,-1.155883437E-1,5.672753767E-1
1.487563750E-1,4.486442124E-1,7.236177877E-2,-6.298620701E-3,4.544860053E-1
1.587323750E-1,4.218718585E-1,6.592443287E-2,8.851515055E-2,4.360697509E-1
1.687083750E-1,4.364424621E-1,7.956701025E-2,6.281079054E-3,4.436804974E-1
1.786843750E-1,3.756942768E-1,1.442084178E-1,-1.256163186E-1,4.215705361E-1
1.886603750E-1,2.918805800E-1,2.163827933E-1,-2.206464368E-1,4.250889746E-1
1.986363750E-1,1.761294644E-1,2.792940098E-1,-1.707989234E-1,3.717512668E-1
2.086123750E-1,8.109364517E-2,3.208318989E-1,-1.897596896E-1,3.814682509E-1
2.185883750E-1,1.817241535E-2,3.611504973E-1,-1.765075600E-1,4.023864276E-1
2.285643750E-1,-2.681423463E-2,3.587899764E-1,-8.485537827E-2,3.696615825E-1
2.385403750E-1,-2.794603631E-3,3.408185591E-1,-5.500826597E-2,3.452405094E-1
2.485163750E-1,2.292371660E-2,3.225647213E-1,-4.442714453E-3,3.234087721E-1
2.584923750E-1,-4.335286483E-2,3.121838669E-1,3.726898313E-2,3.173755107E-1
2.684683750E-1,-1.667552814E-1,2.742290054E-1,4.880612433E-2,3.246396603E-1
2.784443750E-1,-2.957102139E-1,2.353640248E-1,2.442615867E-2,3.787312926E-1
2.884203750E-1,-3.677517115E-1,2.330271851E-1,-1.423171359E-1,4.580361966E-1
2.983963750E-1,-4.921290050E-1,2.535440415E-1,-3.038768739E-1,6.315193529E-1
3.083723750E-1,-5.530121148E-1,2.600474609E-1,-4.572996265E-1,7.632627525E-1
3.183483750E-1,-6.514464089E-1,2.867329837E-1,-5.349032879E-1,8.903481089E-1
3.283243750E-1,-7.550039602E-1,3.428666925E-1,-5.285309923E-1,9.833277981E-1
3.383003750E-1,-8.444214823E-1,4.106660351E-1,-5.234942007E-1,1.075053678E0
3.482763750E-1,-9.064089118E-1,5.655127309E-1,-6.027093548E-1,1.226637816E0
3.582523750E-1,-9.376847912E-1,7.401032813E-1,-6.981826919E-1,1.383641827E0
3.682283750E-1,-9.965613558E-1,9.662420078E-1,-8.849351585E-1,1.646167789E0
3.782043750E-1,-9.954154477E-1,1.198673069E0,-1.095710911E0,1.904796955E0
3.881803750E-1,-9.020327825E-1,1.367667103E0,-1.220070078E0,2.042730389E0
3.981563750E-1,-8.993264718E-1,1.461622942E0,-1.234686947E0,2.114138497E0
4.081323750E-1,-9.439571726E-1,1.510748616E0,-1.082690331E0,2.084618641E0
4.181083750E-1,-1.005748355E0,1.541416239E0,-8.294614542E-1,2.018786784E0
4.280843750E-1,-1.103689290E0,1.483851863E0,-6.184085441E-1,1.949968084E0
4.380603750E-1,-1.170177322E0,1.422073983E0,-3.861208856E-1,1.881674445E0
4.480363750E-1,-1.154244901E0,1.356179956E0,-1.020631492E-1,1.783794341E0
4.580123750E-1,-1.065893107E0,1.227381290E0,3.253998899E-1,1.657853442E0
4.679883750E-1,-8.984782601E-1,1.111458047E0,9.112195623E-1,1.694969989E0
4.779643750E-1,-7.067480589E-1,9.826548497E-1,1.299478775E0,1.775879629E0
4.879403750E-1,-6.111307340E-1,9.346525714E-1,1.404153875E0,1.794074778E0
4.979163750E-1,-5.273931241E-1,9.743965347E-1,1.225146630E0,1.651840301E0
5.078923750E-1,-3.781362203E-1,1.065784422E0,6.514061362E-1,1.305072178E0
5.178683750E-1,-2.889232045E-1,1.180675339E0,-1.027320707E-1,1.219846201E0
5.278443750E-1,-1.902713209E-1,1.397527226E0,-6.810485959E-1,1.566241588E0
5.378203750E-1,-1.699338278E-1,1.555346500E0,-1.108623317E0,1.917557274E0
5.477963750E-1,-1.753568280E-1,1.660378573E0,-1.394263310E0,2.175218885E0
5.577723750E-1,-2.110746179E-1,1.745754645E0,-1.554602149E0,2.347125821E0
5.677483750E-1,-2.410853060E-1,1.824553624E0,-1.670612077E0,2.485570913E0
5.777243750E-1,-1.907784938E-1,1.837205244E0,-1.713133614E0,2.519235266E0
5.877003750E-1,-1.390046883E-1,1.816121939E0,-1.656323821E0,2.461915880E0
5.976763750E-1,-1.959730871E-1,1.828524614E0,-1.530994601E0,2.392875296E0
6.076523750E-1,-1.884521791E-1,1.827956265E0,-1.460490044E0,2.347332422E0
6.176283750E-1,-2.431133397E-1,1.808277314E0,-1.422643356E0,2.313630277E0
6.276043750E-1,-3.760108305E-1,1.812708627E0,-1.392417344E0,2.316489320E0
6.375803750E-1,-5.063856132E-1,1.753338484E0,-1.340109322E0,2.264180917E0
6.475563750E-1,-5.724834160E-1,1.734606929E0,-1.226703159E0,2.200317954E0
6.575323750E-1,-4.999205661E-1,1.706821106E0,-1.084769601E0,2.083238812E0
6.675083750E-1,-4.659364756E-1,1.691609282E0,-1.001162018E0,2.020139636E0
6.774831250E-1,-5.108805871E-1,1.655823592E0,-9.009688085E-1,1.953073356E0
6.874591250E-1,-5.479560274E-1,1.657308346E0,-7.569817078E-1,1.902616111E0
6.974351250E-1,-5.161244432E-1,1.671265065E0,-5.863734037E-1,1.844815743E0
7.074111250E-1,-5.057550640E-1,1.674109151E0,-4.882331514E-1,1.815709570E0
7.173871250E-1,-4.962274647E-1,1.695302822E0,-4.972326010E-1,1.835084089E0
7.273631250E-1,-4.260647506E-1,1.763336638E0,-5.797806680E-1,1.904477066E0
7.373391250E-1,-3.681230097E-1,1.804603363E0,-6.746809781E-1,1.961454121E0
7.473151250E-1,-3.071998465E-1,1.894117218E0,-7.789415109E-1,2.070942215E0
7.572911250E-1,-2.169577208E-1,2.018725769E0,-8.656966496E-1,2.207205262E0
7.672671250E-1,-1.699977817E-1,2.130597184E0,-8.386024064E-1,2.295995993E0
7.772431250E-1,-1.218520273E-1,2.235040003E0,-7.597129422E-1,2.363771454E0
7.872191250E-1,-8.474004194E-2,2.323498582E0,-5.509632504E-1,2.389432368E0
7.971951250E-1,-7.494822152E-2,2.342620585E0,-3.161846781E-1,2.365049935E0
8.071711250E-1,-7.240442690E-2,2.337806280E0,-5.367568552E-2,2.339543050E0
8.171471250E-1,-7.950466432E-2,2.323820764E0,1.457114446E-1,2.329741565E0
8.271231250E-1,-8.546867810E-2,2.313741333E0,3.073676616E-1,2.335632405E0
8.370991250E-1,-1.765541185E-1,2.295366458E0,4.643823588E-1,2.348516449E0
8.470751250E-1,-2.852379603E-1,2.197012490E0,5.150601768E-1,2.274535461E0
8.570511250E-1,-4.537882638E-1,2.079028981E0,5.405353260E-1,2.195555449E0
8.670271250E-1,-6.183212744E-1,2.082919572E0,7.693397981E-1,2.304942270E0
8.770031250E-1,-6.563751000E-1,2.102885036E0,1.023029435E0,2.428897481E0
8.869791250E-1,-6.418689620E-1,1.980646800E0,9.006647533E-1,2.268513722E0
8.969551250E-1,-4.853812451E-1,1.932247349E0,1.095934274E0,2.273817650E0
9.069311250E-1,-1.889558801E-1,1.594598274E0,1.444687359E0,2.159992950E0
9.169071250E-1,1.173042640E-1,1.171930097E0,2.139585670E0,2.442336439E0
9.268831250E-1,3.924676728E-1,8.535484743E-1,2.978148900E0,3.122810712E0
9.368591250E-1,6.019320405E-1,1.351920113E-1,3.277372559E0,3.334931776E0
9.468351250E-1,4.484282309E-1,-2.306315808E-1,3.383922277E0,3.421287591E0
9.568111250E-1,2.039257937E-1,-6.113937856E-1,3.340136572E0,3.401749610E0
9.667871250E-1,3.618312594E-1,-8.150259943E-1,3.262538173E0,3.382210012E0
9.767631250E-1,4.926749888E-1,-1.071676662E0,2.411192345E0,2.684225780E0
9.867391250E-1,4.861141936E-1,-1.269862189E0,1.453951687E0,1.990686439E0
9.967151250E-1,5.847503628E-1,-1.031767661E0,1.429636626E0,1.857508647E0
1.006691125E0,5.946408184E-1,-9.198336804E-1,1.340533245E0,1.731104007E0
1.016667125E0,6.330809623E-1,-9.269590974E-1,6.915273911E-1,1.318428916E0
1.026643125E0,5.533895525E-1,-9.918484269E-1,1.858291912E-1,1.150884784E0
1.036619125E0,9.203885081E-1,-9.754412860E-1,-5.506457466E-1,1.449762548E0
1.046595125E0,6.787034970E-1,-1.020908212E0,-5.944694585E-1,1.362455853E0
1.056571125E0,5.320068696E-1,-7.871119715E-1,-5.138784546E-1,1.080114638E0
1.066547125E0,9.205001168E-1,-6.868443561E-1,-3.012006032E-1,1.187348912E0
1.076523125E0,1.228843679E0,-7.933756551E-1,-2.399188596E-1,1.482249229E0
1.086499125E0,1.438180431E0,-8.789053635E-1,-2.987985671E-1,1.711758795E0
1.096475125E0,1.230790217E0,-8.157082182E-1,-1.864232683E-1,1.488280246E0
1.106451125E0,9.821543281E-1,-6.519016877E-1,-1.079419398E-1,1.183745917E0
1.116427125E0,1.083526921E0,-2.339307261E-1,-1.922570354E-1,1.125040862E0
1.126403125E0,8.790896970E-1,-7.339660437E-1,-1.888177031E-1,1.160670915E0
1.136379125E0,4.390765231E-1,-1.161541349E0,-3.556007588E-1,1.291672714E0
1.146355125E0,4.442156409E-1,-7.478794934E-1,-4.988791770E-1,1.002762038E0
1.156330125E0,4.777985027E-1,-5.727783349E-1,-9.356965917E-1,1.196617960E0
1.166306125E0,4.385948587E-1,-3.975631557E-1,-1.394770848E0,1.515192275E0
1.176282125E0,4.792480275E-1,-2.662151040E-1,-1.722959275E0,1.808075722E0
1.186258125E0,6.303802796E-1,-7.281683832E-3,-2.029744554E0,2.125392970E0
1.196234125E0,7.201723889E-1,2.506584406E-1,-2.467159554E0,2.582315664E0
1.206210125E0,6.179211786E-1,4.000036374E-1,-2.906957880E0,2.998705322E0
1.216186125E0,6.786573040E-1,6.376634252E-1,-3.178682669E0,3.312282278E0
1.226162125E0,4.641553406E-1,7.016468748E-1,-3.160169799E0,3.270232664E0
1.236138125E0,3.194775376E-1,7.248712845E-1,-3.045086070E0,3.146435039E0
1.246114125E0,4.169189744E-1,5.241913350E-1,-2.646242813E0,2.729688446E0
1.256090125E0,6.457606494E-1,4.426741321E-1,-2.113904698E0,2.254231638E0
1.266066125E0,5.847415189E-1,5.300277333E-1,-1.665741931E0,1.843243940E0
1.276042125E0,3.273646275E-1,9.001940525E-1,-1.522304469E0,1.798590511E0
1.286018125E0,7.356400285E-1,1.033883768E0,-1.425412597E0,1.908371811E0
1.295994125E0,9.457136030E-1,1.149835662E0,-1.486986701E0,2.104192415E0
1.305970125E0,1.130357052E0,1.348898857E0,-1.497560222E0,2.310827083E0
1.315946125E0,1.179167635E0,1.386918038E0,-1.420150688E0,2.308853813E0
1.325922125E0,1.236916783E0,1.434087819E0,-1.552865526E0,2.449073772E0
1.335898125E0,1.245904685E0,1.579369785E0,-1.543843272E0,2.535771963E0
1.345874125E0,1.235496494E0,1.579156362E0,-1.500177435E0,2.504140320E0
1.355850125E0,1.087892160E0,1.457796670E0,-1.436928688E0,2.318069140E0
1.365826125E0,5.806101321E-1,1.152637209E0,-1.092058740E0,1.690642763E0
1.375802125E0,6.468472083E-1,1.349417066E0,-7.965702814E-1,1.695246868E0
1.385778125E0,1.018511146E0,1.302950705E0,-5.229042166E-1,1.734495406E0
1.395754125E0,1.436306545E0,1.232448779E0,-1.163993526E-1,1.896168582E0
1.405730125E0,1.435518340E0,1.404284122E0,3.835826093E-1,2.044471183E0
1.415706125E0,7.719768193E-1,1.768667399E0,8.897292906E-1,2.125029597E0
1.425682125E0,2.422454667E-1,2.021955186E0,1.145842014E0,2.336651356E0
1.435658125E0,-6.714874481E-1,1.948022260E0,9.894500452E-1,2.285759723E0
1.445634125E0,-1.219446472E0,1.685205704E0,6.828501230E-1,2.189349733E0
1.455610125E0,-9.278111098E-1,1.582162854E0,6.850124234E-1,1.957885281E0
1.465586125E0,-3.391125608E-1,1.607581139E0,8.842551273E-1,1.865803199E0
1.475562125E0,1.741473314E-1,1.657285688E0,1.285044923E0,2.104343983E0
1.485538125E0,2.939678898E-1,1.900682910E0,1.893787435E0,2.699156070E0
1.495514125E0,-1.150140741E-1,1.760085148E0,2.109459060E0,2.749717348E0
1.505490125E0,-9.148513410E-1,1.344551598E0,2.230220436E0,2.760191147E0
1.515466125E0,-1.068124259E0,1.193714192E0,2.587318667E0,3.043034815E0
1.525442125E0,-1.491667690E0,-2.719287108E-1,3.362944806E0,3.688958592E0
1.535418125E0,-1.290049555E0,-8.053394969E-1,4.386344370E0,4.642501103E0
1.545394125E0,-9.258083653E-1,-1.347855129E0,5.176306129E0,5.428441739E0
1.555370125E0,-9.015715103E-1,-2.200116923E0,5.491764582E0,5.984381663E0
1.565346125E0,-7.493537226E-1,-2.305123561E0,5.235283484E0,5.769169680E0
1.575322125E0,-4.809755143E-1,-1.868349415E0,4.308744802E0,4.720947866E0
1.585297125E0,-6.629136027E-1,-1.325273182E0,2.671738427E0,3.055157881E0
1.595273125E0,-1.247850784E0,-7.919546355E-1,7.367848402E-1,1.651416248E0
1.605249125E0,-1.709148006E0,-2.451307753E-1,-9.985769641E-1,1.994600701E0
1.615225125E0,-2.033369536E0,3.799535349E-2,-2.051174600E0,2.888486204E0
1.625201125E0,-1.816525689E0,6.419307232E-2,-2.229936261E0,2.876891041E0
1.635177125E0,-1.305222787E0,-1.477379434E-1,-1.566379611E0,2.044254903E0
1.645153125E0,-9.087758647E-1,-4.395502572E-1,-5.554726231E-1,1.152227337E0
1.655129125E0,-6.619403337E-1,-7.982579340E-1,2.374431485E-1,1.063842086E0
1.665105125E0,-2.793096511E-1,-1.164425635E0,6.777794176E-1,1.375967252E0
1.675081000E0,-6.613975659E-2,-1.158207998E0,9.303978449E-1,1.487097974E0
1.685057000E0,9.780425660E-2,-1.018017787E0,9.117323631E-1,1.370102839E0
1.695033000E0,2.931368543E-1,-7.847232378E-1,6.370336801E-1,1.052393313E0
1.705009000E0,3.052274345E-1,-6.281460585E-1,1.648558134E-1,7.175713879E-1
1.714985000E0,2.622493762E-1,-4.650582969E-1,-3.511369944E-1,6.390235861E-1
1.724961000E0,2.249833898E-1,-2.628095394E-1,-9.287559468E-1,9.910973657E-1
1.734937000E0,2.713162149E-1,-8.460906431E-2,-1.525594697E0,1.551840959E0
1.744913000E0,1.457255510E-1,1.793134926E-1,-2.132760215E0,2.145240173E0
1.754889000E0,6.503865279E-2,4.768103233E-1,-2.314022731E0,2.363531110E0
1.764865000E0,9.091981798E-2,4.935228351E-1,-2.513695205E0,2.563297639E0
1.774841000E0,6.135995016E-3,4.835059699E-1,-2.630559411E0,2.674632402E0
1.784817000E0,1.376867259E-1,5.602771340E-1,-2.450556970E0,2.517557857E0
1.794793000E0,2.801380554E-1,5.914332917E-1,-2.294255633E0,2.385766036E0
1.804769000E0,4.669367149E-1,6.668938024E-1,-2.106910259E0,2.258727093E0
1.814745000E0,5.128507333E-1,7.025463228E-1,-2.073996282E0,2.249010402E0
1.824721000E0,3.650448161E-1,6.956669274E-1,-2.194081720E0,2.330494536E0
1.834697000E0,1.384894755E-1,7.258644341E-1,-2.329206780E0,2.443616733E0
1.844673000E0,-2.792736176E-1,6.802422649E-1,-2.519085168E0,2.624216717E0
1.854649000E0,-5.603842477E-1,6.166344988E-1,-2.680927327E0,2.807425857E0
1.864625000E0,-6.068855824E-1,5.379514414E-1,-2.674800614E0,2.795042073E0
1.874601000E0,-4.544919031E-1,5.418151353E-1,-2.411734382E0,2.513282567E0
1.884577000E0,-1.777265583E-1,6.404728661E-1,-2.154284400E0,2.254491849E0
1.894553000E0,-1.469480576E-1,4.753020340E-1,-2.041154226E0,2.100908453E0
1.904529000E0,-2.242212783E-1,4.809994148E-1,-1.914981253E0,1.987155962E0
1.914505000E0,-4.885851538E-1,3.512821515E-1,-1.970470744E0,2.060308122E0
1.924481000E0,-7.020396616E-1,3.409121145E-1,-1.979856110E0,2.128123815E0
1.934457000E0,-6.056767436E-1,5.671014194E-1,-2.019492631E0,2.183299985E0
1.944433000E0,-4.500146901E-1,6.111120960E-1,-2.064486955E0,2.199563048E0
1.954409000E0,-1.823517424E-1,8.112277892E-1,-1.844610012E0,2.023345937E0
1.964384000E0,6.870836534E-2,9.202473709E-1,-1.596612055E0,1.844111200E0
1.974360000E0,1.113816923E-1,9.337532696E-1,-1.228740914E0,1.547289657E0
1.984336000E0,2.040892782E-1,1.169893220E0,-7.739778095E-1,1.417513396E0
1.994312000E0,2.208370926E-2,1.001932681E0,-4.947264844E-1,1.117636382E0
2.004288000E0,-3.482251541E-1,9.032623789E-1,1.690213698E-1,9.827064193E-1
2.014264000E0,-5.405957351E-2,1.288608216E0,7.264112949E-1,1.480238812E0
2.024240000E0,-6.436578445E-3,1.060454101E0,7.997149140E-1,1.328212435E0
2.034216000E0,4.998040969E-2,1.087559746E0,1.074907687E0,1.529938161E0
2.044192000E0,2.698714411E-1,1.293924943E0,1.266230922E0,1.830413369E0
2.054168000E0,4.377618497E-1,1.517154534E0,1.363781775E0,2.086454899E0
2.064144000E0,4.580492030E-1,1.549411576E0,1.336381722E0,2.096759741E0
2.074120000E0,4.128075778E-2,1.241250886E0,1.336065972E0,1.824138192E0
2.084096000E0,-5.938625906E-1,8.860319500E-1,1.684496875E0,1.993804182E0
2.094072000E0,-1.258952892E0,3.564717016E-1,2.459749963E0,2.786109176E0
2.104048000E0,-1.504380852E0,-1.963993491E-1,3.500325138E0,3.814971890E0
2.114024000E0,-5.842141000E-1,-6.573635718E-1,5.288222421E0,5.360851551E0
2.124000000E0,2.136643935E0,-1.134975256E-1,7.301328723E0,7.608385513E0
2.133976000E0,8.977075971E-1,-1.238722550E0,5.720325226E0,5.921353998E0
2.143952000E0,1.949695880E0,-6.790943103E-1,6.258769003E0,6.590498656E0
2.153928000E0,1.486322165E0,-9.674896574E-1,5.325501344E0,5.613034329E0
2.163904000E0,9.552932426E-1,-1.181173230E0,4.117098216E0,4.388422621E0
2.173880000E0,9.814808019E-1,-9.734288205E-1,3.142635754E0,3.433224099E0
2.183856000E0,8.480197126E-1,-8.584994580E-1,2.209630635E0,2.517662864E0
2.193832000E0,7.280777514E-1,-6.678259948E-1,1.340266027E0,1.665053091E0
2.203808000E0,5.056548574E-1,-4.538450915E-1,6.285563868E-1,9.256053874E-1
2.213784000E0,2.156728683E-1,-4.405292273E-1,-8.802339971E-2,4.983261031E-1
2.223760000E0,2.516809724E-2,-3.091323513E-1,-6.632338840E-1,7.321717207E-1
2.233736000E0,-1.067884304E-3,-1.682176700E-1,-8.533122468E-1,8.697356584E-1
2.243712000E0,-9.966856822E-2,-3.044459541E-1,-9.883320576E-1,1.038952077E0
2.253688000E0,-9.311679963E-2,-3.178271610E-1,-1.004189122E0,1.057393321E0
2.263664000E0,-8.788737886E-2,-3.689331414E-1,-1.090860645E0,1.154908135E0
2.273640000E0,1.180980418E-2,-4.279830028E-1,-1.371145758E0,1.436436428E0
2.283616000E0,3.020507884E-1,-3.480467409E-1,-1.830345730E0,1.887468332E0
2.293592000E0,5.986214932E-1,-3.292441419E-1,-2.518207501E0,2.609237133E0
2.303568000E0,7.486590734E-1,-3.272113574E-1,-3.261517249E0,3.362298685E0
2.313544000E0,7.611008520E-1,-2.768260463E-1,-3.689057472E0,3.776910404E0
2.323520000E0,6.805726326E-1,-3.460931861E-1,-3.796219393E0,3.872239827E0
2.333495000E0,7.054039302E-1,-3.512287956E-1,-3.598005799E0,3.683286861E0
2.343471000E0,8.417740823E-1,-3.325560048E-1,-3.268185999E0,3.391196960E0
2.353447000E0,9.409709995E-1,-3.193054833E-1,-2.985629243E0,3.146643353E0
2.363423000E0,8.984749711E-1,-2.626687677E-1,-2.805208726E0,2.957270389E0
2.373399000E0,6.932248378E-1,-2.667936860E-1,-2.677705511E0,2.778821036E0
2.383375000E0,5.925874590E-1,-2.182942481E-1,-2.529031282E0,2.606685923E0
2.393351000E0,5.488776217E-1,-1.925191368E-1,-2.353701351E0,2.424508262E0
2.403327000E0,6.413240015E-1,-1.208414823E-1,-2.149697844E0,2.246575163E0
2.413303000E0,6.863316283E-1,3.206759244E-3,-2.028217846E0,2.141198034E0
2.423279000E0,5.173897076E-1,9.462125167E-2,-2.157897395E0,2.221073267E0
2.433255000E0,2.229093824E-1,1.768060604E-1,-2.284176788E0,2.301828094E0
2.443231000E0,4.397778600E-2,2.465567650E-1,-2.335155153E0,2.348547183E0
2.453207000E0,2.408539756E-1,2.687500182E-1,-2.119494637E0,2.149998773E0
2.463183000E0,7.440236201E-1,3.278799865E-1,-1.547209514E0,1.747836867E0
2.473159000E0,1.077701340E0,3.866453809E-1,-7.462047046E-1,1.366658805E0
2.483135000E0,1.296689214E0,4.522324294E-1,-3.190650165E-2,1.373657568E0
2.493111000E0,1.358438589E0,6.473699494E-1,4.607126462E-1,1.573753282E0
2.503087000E0,1.042627329E0,8.415391704E-1,6.644471812E-1,1.495576805E0
2.513063000E0,5.346329273E-1,9.709994486E-1,7.266925460E-1,1.325426102E0
2.523039000E0,1.047791809E-1,9.992862314E-1,9.825117391E-1,1.405304581E0
2.533015000E0,-1.895304056E-1,1.001043612E0,1.487943891E0,1.803326679E0
2.542991000E0,-3.105315169E-1,9.163414308E-1,1.999939542E0,2.221681708E0
2.552967000E0,-3.774697839E-1,7.809487139E-1,2.548269791E0,2.691847555E0
2.562943000E0,-2.500349081E-1,7.318392652E-1,3.009171302E0,3.106962840E0
2.572919000E0,4.542650677E-2,6.819003890E-1,3.482242039E0,3.548670360E0
2.582895000E0,3.063946118E-1,5.668583214E-1,3.873756981E0,3.926983468E0
2.592871000E0,5.086305054E-1,4.835163487E-1,4.084121089E0,4.143976124E0
2.602847000E0,3.885125430E-1,3.630062574E-1,4.199805327E0,4.233329697E0
2.612823000E0,-1.194954532E-1,3.172114491E-3,4.199363278E0,4.201064289E0
2.622799000E0,-6.267327134E-1,-3.487691644E-1,4.135416373E0,4.197154084E0
2.632775000E0,-8.968770732E-1,-5.348375067E-1,4.046186108E0,4.178763174E0
2.642751000E0,-8.033938359E-1,-5.945769010E-1,4.053017995E0,4.174436275E0
2.652727000E0,-3.238858265E-1,-5.792868707E-1,4.071989871E0,4.125721369E0
2.662703000E0,3.029035317E-1,-6.665418001E-1,4.044025562E0,4.109765354E0
2.672679250E0,8.437263215E-1,-7.272889620E-1,4.077801418E0,4.227208032E0
2.682654250E0,1.151369972E0,-7.255185713E-1,3.959714559E0,4.187047814E0
2.692630250E0,1.192585460E0,-6.902391033E-1,3.479254112E0,3.742178413E0
2.702606250E0,9.161897687E-1,-6.058110103E-1,2.633226326E0,2.853119618E0
2.712582250E0,2.177753077E-1,-6.192964438E-1,1.608319350E0,1.737137099E0
2.722558250E0,-4.877272211E-1,-5.932552841E-1,5.346208674E-1,9.357612656E-1
2.732534250E0,-8.714516254E-1,-4.778764169E-1,-5.262704587E-1,1.124613000E0
2.742510250E0,-9.549541041E-1,-4.332719555E-1,-1.430515462E0,1.773706970E0
2.752486250E0,-8.436389787E-1,-3.909148715E-1,-2.132549130E0,2.326436536E0
2.762462250E0,-6.130274977E-1,-3.810685989E-1,-2.600683063E0,2.698993957E0
2.772438250E0,-3.178026026E-1,-3.853133851E-1,-2.747250540E0,2.792284088E0
2.782414250E0,-8.147766106E-2,-4.020175646E-1,-2.684229249E0,2.715390100E0
2.792390250E0,6.082492992E-2,-4.009390457E-1,-2.675560752E0,2.706118462E0
2.802366250E0,3.600203767E-2,-4.702770831E-1,-2.736043766E0,2.776399138E0
2.812342250E0,-2.661937617E-2,-5.070237637E-1,-2.891041759E0,2.935286040E0
2.822318250E0,-7.446728803E-2,-4.916300914E-1,-3.041982368E0,3.082353363E0
2.832294250E0,-3.878392361E-2,-5.294778027E-1,-3.218522088E0,3.262014005E0
2.842270250E0,1.058234571E-1,-4.850676151E-1,-3.322837585E0,3.359723026E0
2.852246250E0,2.147824104E-1,-4.060951205E-1,-3.560995263E0,3.590505813E0
2.862222250E0,2.771083937E-1,-3.194962487E-1,-3.958539269E0,3.981067703E0
2.872198250E0,2.493029464E-1,-2.702053902E-1,-4.201492833E0,4.217547266E0
2.882174250E0,1.853109086E-1,-1.407698165E-1,-4.263584417E0,4.269930720E0
2.892150250E0,2.391675655E-2,-7.964185461E-2,-4.147378607E0,4.148212162E0
2.902126250E0,-2.160460668E-1,-2.439633787E-2,-3.875523425E0,3.881617305E0
2.912102250E0,-4.615441569E-1,5.701006025E-2,-3.572314888E0,3.602458440E0
2.922078250E0,-8.251359033E-1,1.353053011E-1,-3.384359064E0,3.486121492E0
2.932054250E0,-1.034693388E0,2.835804574E-1,-3.269976416E0,3.441475562E0
2.942030250E0,-9.881700897E-1,4.346508752E-1,-3.206760414E0,3.383594813E0
2.952006250E0,-8.537528345E-1,5.435152133E-1,-3.117948225E0,3.278094541E0
2.961982250E0,-7.031554565E-1,6.847732723E-1,-2.797507943E0,2.964690999E0
2.971958250E0,-6.510113029E-1,7.637181388E-1,-2.292702613E0,2.502711806E0
2.981934250E0,-6.188200419E-1,8.119952363E-1,-1.678091251E0,1.964246612E0
2.991910250E0,-6.039161104E-1,8.397130850E-1,-1.058357728E0,1.479849253E0
3.001886250E0,-5.764011601E-1,8.574775109E-1,-5.237918240E-1,1.158388473E0
3.011861250E0,-5.124763653E-1,9.199248970E-1,4.292967260E-2,1.053914986E0
3.021837250E0,-4.734896164E-1,9.165232792E-1,7.147677344E-1,1.255029981E0
3.031813250E0,-4.107796904E-1,9.113907395E-1,1.491159859E0,1.795252283E0
3.041789250E0,-5.006873188E-1,8.943161389E-1,2.264303271E0,2.485469463E0
3.051765250E0,-6.867266808E-1,8.799752578E-1,2.942307807E0,3.146923135E0
3.061741250E0,-1.068704522E0,7.851781511E-1,3.314758487E0,3.570190178E0
3.071717250E0,-1.470900865E0,7.588531092E-1,3.315315726E0,3.705499394E0
3.081693250E0,-1.700476877E0,7.688303594E-1,3.197378556E0,3.702154962E0
3.091669250E0,-1.502062870E0,8.451315536E-1,3.124321690E0,3.568168470E0
3.101645250E0,-9.624190251E-1,9.625211321E-1,3.135260661E0,3.417975529E0
3.111621250E0,-5.521157366E-1,8.587386091E-1,3.090223652E0,3.254496275E0
3.121597250E0,-3.954280815E-1,6.549935491E-1,2.997802561E0,3.093897237E0
3.131573250E0,-6.343780209E-1,2.913932146E-1,3.103810827E0,3.181349891E0
3.141549250E0,-8.081487916E-1,-3.198426962E-3,3.498602548E0,3.590728964E0
3.151525250E0,-8.373953949E-1,-2.927314961E-1,4.106882545E0,4.201595770E0
3.161501250E0,-6.115330224E-1,-5.601305151E-1,4.548896965E0,4.623870936E0
3.171477250E0,-2.184143353E-1,-6.569665459E-1,4.398861505E0,4.453009365E0
3.181453250E0,8.490878893E-2,-8.127952816E-1,3.788391725E0,3.875533194E0
3.191429250E0,3.437365390E-1,-9.002450694E-1,2.886610739E0,3.043208430E0
3.201405250E0,6.937534261E-1,-8.171545270E-1,1.774680237E0,2.073288518E0
3.211381250E0,1.095274854E0,-6.951696217E-1,5.767915714E-1,1.419709945E0
3.221357250E0,1.410106779E0,-5.564102241E-1,-4.178724360E-1,1.572453764E0
3.231333250E0,1.447852749E0,-4.648416576E-1,-1.185775573E0,1.928320269E0
3.241309250E0,1.110091114E0,-4.807482769E-1,-1.752621616E0,2.129578295E0
3.251285250E0,6.036647533E-1,-4.958637679E-1,-2.037925394E0,2.182528790E0
3.261261250E0,1.841375917E-1,-5.712542582E-1,-2.028584467E0,2.115512472E0
3.271237250E0,-7.304385647E-2,-6.684488694E-1,-1.819674561E0,1.939941959E0
3.281213250E0,-2.384219358E-1,-7.758670449E-1,-1.427916960E0,1.642486388E0
3.291189250E0,-3.068102027E-1,-8.411725500E-1,-1.022919508E0,1.359436677E0
3.301165250E0,-2.109448462E-1,-9.188248895E-1,-8.116210145E-1,1.243971695E0
3.311141250E0,-1.827170838E-2,-9.482137263E-1,-7.398633993E-1,1.202847029E0
3.321117250E0,2.549377985E-1,-8.932383509E-1,-7.015787548E-1,1.164079371E0
3.331092250E0,4.767210436E-1,-8.544094768E-1,-8.677636403E-1,1.307781420E0
3.341068250E0,6.450172491E-1,-7.289839236E-1,-1.150382962E0,1.506932570E0
3.351044250E0,7.359536585E-1,-6.173889358E-1,-1.591773484E0,1.859177159E0
3.361020250E0,7.428581969E-1,-4.923012055E-1,-2.195120185E0,2.369124607E0
3.370996250E0,6.661152457E-1,-3.456258474E-1,-2.812346422E0,2.910748898E0
3.380972250E0,5.882651241E-1,-1.843492609E-1,-3.357839018E0,3.413960072E0
3.390948250E0,4.605968348E-1,-1.045775981E-1,-3.792082488E0,3.821383979E0
3.400924250E0,4.427346874E-1,-1.705033466E-2,-4.032437550E0,4.056705228E0
3.410900250E0,4.190291249E-1,3.115060285E-2,-3.944487240E0,3.966804174E0
3.420876250E0,3.917515716E-1,8.134090930E-2,-3.574499992E0,3.596823019E0
3.430852250E0,3.458107291E-1,1.677918465E-1,-3.065173010E0,3.089178652E0
3.440828250E0,2.137772375E-1,2.111716086E-1,-2.548028301E0,2.565685557E0
3.450804250E0,2.185257979E-2,1.889372787E-1,-2.098159316E0,2.106762290E0
3.460780250E0,-7.427765552E-2,1.980393469E-1,-1.647237833E0,1.660761642E0
3.470756250E0,-9.187909026E-2,1.462812558E-1,-1.197601567E0,1.209995655E0
3.480732250E0,1.465918891E-2,1.738514623E-1,-7.041871977E-1,7.254783471E-1
3.490708250E0,2.050491352E-1,3.094798221E-1,-1.002774096E-1,3.845496938E-1
3.500684250E0,3.222926065E-1,4.345929877E-1,4.063083977E-1,6.766314382E-1
3.510660250E0,3.811644202E-1,5.489693499E-1,7.234467566E-1,9.849004376E-1
3.520636250E0,3.218743844E-1,6.036756071E-1,9.887255752E-1,1.202333407E0
3.530612250E0,2.323578981E-1,5.902414830E-1,1.336772901E0,1.479640831E0
3.540588250E0,2.237161519E-1,6.220401035E-1,1.868938522E0,1.982401071E0
3.550564250E0,2.167648358E-1,6.113054927E-1,2.386193744E0,2.472772125E0
3.560540250E0,1.409806086E-1,5.747152251E-1,2.717743735E0,2.781421243E0
3.570516250E0,-1.019388959E-2,5.804606992E-1,2.864257418E0,2.922500487E0
3.580492250E0,-1.349095177E-1,4.497460471E-1,2.920511726E0,2.958016366E0
3.590468250E0,-1.821955852E-2,4.386220117E-1,3.150531249E0,3.180969722E0
3.600444250E0,7.993384995E-2,4.579394580E-1,3.609006751E0,3.638822295E0
3.610420250E0,2.152490913E-1,4.515706708E-1,4.042307065E0,4.073143092E0
3.620396250E0,2.413250419E-1,3.724476103E-1,4.295505536E0,4.318370388E0
3.630371250E0,-1.455187789E-1,1.309755841E-1,4.208436987E0,4.212988511E0
3.640347250E0,-6.653526957E-1,-1.119728641E-1,3.838180767E0,3.897032683E0
3.650323250E0,-9.789969047E-1,-1.741254044E-1,3.306057245E0,3.452357036E0
3.660299250E0,-1.073880185E0,-2.565471715E-1,2.790561451E0,3.001044537E0
3.670275250E0,-9.339772180E-1,-2.951648149E-1,2.412049547E0,2.603347600E0
3.680251208E0,-6.406704289E-1,-3.139565966E-1,2.149887294E0,2.265180505E0
3.690227208E0,-4.001411200E-1,-4.428137344E-1,1.798057989E0,1.894520903E0
3.700203208E0,-2.457323441E-1,-5.171584502E-1,1.387683438E0,1.501167070E0
3.710179208E0,-1.367730619E-1,-4.537021270E-1,9.639573544E-1,1.074135127E0
3.720155208E0,-1.405140373E-1,-4.251856948E-1,4.347334671E-1,6.241155800E-1
3.730131208E0,-1.558450713E-1,-3.491077182E-1,-1.248322070E-1,4.021777779E-1
3.740107208E0,-2.382537919E-1,-3.276873207E-1,-7.348897576E-1,8.391703077E-1
3.750083208E0,-3.504792191E-1,-2.854882577E-1,-1.372502312E0,1.445026583E0
3.760059208E0,-4.988364192E-1,-2.486981615E-1,-1.938172479E0,2.016730301E0
3.770035208E0,-6.850698723E-1,-2.534038545E-1,-2.379095224E0,2.488700128E0
3.780011208E0,-7.564803091E-1,-3.100388159E-1,-2.379086453E0,2.515638861E0
3.789987208E0,-6.497971286E-1,-3.839346117E-1,-2.048418222E0,2.183039007E0
3.799963208E0,-4.768008216E-1,-5.114939600E-1,-1.558783493E0,1.708441124E0
3.809939208E0,-2.877122462E-1,-5.973598833E-1,-1.098212349E0,1.282843533E0
3.819915208E0,-1.148984088E-1,-6.729858702E-1,-7.685556865E-1,1.028002660E0
3.829891208E0,3.230418541E-2,-7.209207594E-1,-6.936265415E-1,1.000943595E0
3.839867208E0,1.104611761E-1,-7.192048940E-1,-8.276879936E-1,1.102054793E0
3.849843208E0,1.418146043E-1,-7.420429489E-1,-1.190829906E0,1.410253518E0
3.859819208E0,2.274445742E-1,-6.755725323E-1,-1.646391156E0,1.794082807E0
3.869795208E0,3.844571335E-1,-5.293019477E-1,-2.258057860E0,2.350913256E0
3.879771208E0,5.268750608E-1,-4.520169595E-1,-2.848340127E0,2.931715904E0
3.889747208E0,6.091350793E-1,-3.332427603E-1,-3.372207381E0,3.442946253E0
3.899723208E0,6.344221674E-1,-1.581366317E-1,-3.762332439E0,3.818722832E0
3.909699208E0,5.016888372E-1,-5.527577609E-2,-4.038159050E0,4.069579292E0
3.919674208E0,1.910170602E-1,1.498641372E-3,-4.149938518E0,4.154332614E0
3.929650208E0,-1.162799414E-1,1.575103949E-1,-4.038015209E0,4.042758634E0
3.939626208E0,-3.209902854E-1,2.314260712E-1,-3.743652340E0,3.764508684E0
3.949602208E0,-4.384265685E-1,3.480677909E-1,-3.422527349E0,3.468005550E0
3.959578208E0,-5.280856537E-1,4.562580912E-1,-3.090181552E0,3.168006933E0
3.969554208E0,-6.262009822E-1,4.967608769E-1,-2.842689963E0,2.952928253E0
3.979530208E0,-7.344824991E-1,5.683211486E-1,-2.480616336E0,2.648756478E0
3.989506208E0,-8.035587274E-1,6.553813657E-1,-1.944412043E0,2.203626456E0
3.999482208E0,-8.816528971E-1,6.702654532E-1,-1.165524911E0,1.607798472E0
4.009458208E0,-8.904986380E-1,6.709042615E-1,-2.414028829E-1,1.140778552E0
4.019434208E0,-8.441743644E-1,7.191445215E-1,6.207100081E-1,1.270858023E0
4.029410208E0,-7.855131966E-1,8.390698913E-1,1.182285370E0,1.648899015E0
4.039386208E0,-7.573451123E-1,9.406447980E-1,1.378919047E0,1.832976266E0
4.049362208E0,-7.055165622E-1,1.062805997E0,1.329274431E0,1.842357381E0
4.059338208E0,-6.996384294E-1,1.079072366E0,1.403631719E0,1.903699846E0
4.069314208E0,-6.236973506E-1,1.056027174E0,1.901975875E0,2.263118204E0
4.079290208E0,-4.842262738E-1,1.075762403E0,2.423113648E0,2.695036101E0
4.089266208E0,-4.311695526E-1,9.949398498E-1,2.644169975E0,2.857874620E0
4.099242208E0,-2.970509805E-1,1.077719028E0,2.670985891E0,2.895493605E0
4.109218208E0,-1.712031852E-1,1.376904388E0,2.463865233E0,2.827686000E0
4.119194208E0,-3.137931303E-1,1.448142186E0,1.953123810E0,2.451586127E0
4.129170208E0,-8.574207929E-1,1.118765897E0,1.438217999E0,2.013772222E0
4.139146208E0,-1.456413219E0,6.922229174E-1,1.237688908E0,2.032777869E0
4.149122208E0,-1.935384819E0,2.181698486E-1,1.516925615E0,2.468678959E0
4.159098208E0,-1.915234145E0,-1.372540319E-1,2.264587446E0,2.969059918E0
4.169074208E0,-1.561652283E0,-5.041511728E-1,3.271735259E0,3.660215549E0
4.179050208E0,-1.005254265E0,-9.037361495E-1,4.076440187E0,4.294722315E0
4.189025208E0,-1.923757339E-1,-1.086037277E0,4.720041459E0,4.847192669E0
4.199001208E0,4.918034613E-1,-1.150176555E0,4.812862499E0,4.972768061E0
4.208977208E0,8.804386497E-1,-1.105064848E0,4.325465500E0,4.550383756E0
4.218953208E0,1.002404990E0,-1.077649446E0,3.332418247E0,3.642959713E0
4.228929208E0,1.075021123E0,-8.364360130E-1,2.138021539E0,2.535040773E0
4.238905208E0,1.098421387E0,-5.860523915E-1,9.539463365E-1,1.568438894E0
4.248881208E0,9.691846190E-1,-4.631602907E-1,-1.273868555E-1,1.081694824E0
4.258857208E0,7.473144331E-1,-3.802608061E-1,-9.642052764E-1,1.277798481E0
4.268833208E0,4.497850042E-1,-3.161916947E-1,-1.626626397E0,1.717031501E0
4.278809208E0,2.276815143E-1,-3.140112680E-1,-2.072736207E0,2.108714616E0
4.288785208E0,1.911579050E-1,-3.604147714E-1,-2.308767838E0,2.344536006E0
4.298761208E0,3.168751612E-1,-4.565871432E-1,-2.333431978E0,2.398705168E0
4.308737208E0,4.928652426E-1,-5.253397281E-1,-2.339914201E0,2.448284389E0
4.318713208E0,6.782159123E-1,-6.451984397E-1,-2.368729280E0,2.546985719E0
4.328689208E0,8.456259356E-1,-7.024287938E-1,-2.392553760E0,2.633021635E0
4.338665208E0,7.740889066E-1,-7.713430542E-1,-2.425844883E0,2.660621570E0
4.348641208E0,6.039928186E-1,-8.187924783E-1,-2.519124929E0,2.716839866E0
4.358617208E0,4.774848727E-1,-7.418780574E-1,-2.641095509E0,2.784557477E0
4.368593208E0,2.224067411E-1,-7.737828049E-1,-2.875353679E0,2.985944301E0
4.378569208E0,3.507890850E-3,-7.243923976E-1,-3.036611116E0,3.121820578E0
4.388545208E0,3.823859766E-2,-5.014769487E-1,-3.089651209E0,3.130317223E0
4.398521208E0,1.844337532E-1,-3.445666243E-1,-3.236192958E0,3.259706556E0
4.408497208E0,2.688209157E-1,-3.533011951E-1,-3.442761639E0,3.471266933E0
4.418473208E0,4.781933360E-1,-2.480004425E-1,-3.554545784E0,3.595131266E0
4.428449208E0,6.607406312E-1,-1.816171494E-1,-3.529311540E0,3.595219453E0
4.438425208E0,6.510816888E-1,-1.287812702E-1,-3.385678196E0,3.450117219E0
4.448401208E0,6.202079516E-1,8.281236112E-2,-3.221667890E0,3.281868337E0
4.458376208E0,4.042690350E-1,2.204097708E-1,-3.103272883E0,3.137246644E0
4.468352208E0,2.066794121E-1,3.672061662E-1,-3.017677247E0,3.046954662E0
4.478328208E0,9.324218586E-2,5.349933350E-1,-2.853431883E0,2.904648943E0
4.488304208E0,-8.939267144E-2,6.291666900E-1,-2.594962732E0,2.671642445E0
4.498280208E0,-1.372665303E-1,6.268614252E-1,-2.180404497E0,2.272875078E0
4.508256208E0,7.020466782E-2,6.701530404E-1,-1.647815537E0,1.780261171E0
4.518232208E0,3.297955343E-1,8.079697207E-1,-1.164220982E0,1.454988199E0
4.528208208E0,4.569515710E-1,9.687415463E-1,-7.097215873E-1,1.284900639E0
4.538184208E0,5.115436614E-1,1.165763039E0,-2.266977203E-1,1.293086322E0
4.548160208E0,4.866944566E-1,1.238346135E0,4.804142547E-1,1.414627336E0
4.558136208E0,4.103124247E-1,1.180520827E0,1.414454330E0,1.887502784E0
4.568112208E0,2.645973256E-1,1.011442154E0,2.462360744E0,2.675116336E0
4.578088208E0,-1.154731536E-1,5.089163612E-1,3.390298081E0,3.430226084E0
4.588064208E0,-4.669596653E-1,2.705158773E-1,4.095036086E0,4.130441952E0
4.598040208E0,-5.530869591E-1,3.388831307E-1,4.558969379E0,4.604883143E0
4.608016208E0,-4.975338788E-1,4.225756440E-1,4.681406567E0,4.726698380E0
4.617992208E0,-5.850808766E-1,2.142827658E-1,4.578002066E0,4.620209914E0
4.627968208E0,-6.610864940E-1,-7.652338833E-2,4.428084719E0,4.477814809E0
4.637944208E0,-8.121355695E-1,-2.033803399E-1,4.424280521E0,4.502797561E0
4.647920208E0,-1.290121622E0,-5.969334751E-1,4.519133468E0,4.737437142E0
4.657896208E0,-1.613501883E0,-8.730474767E-1,4.700526377E0,5.045844671E0
4.667872208E0,-1.509004977E0,-9.147201441E-1,4.687097077E0,5.008261971E0
4.677848708E0,-1.206877151E0,-1.081839853E0,4.375957376E0,4.666468996E0
4.687824708E0,-8.072801878E-1,-1.252398895E0,4.010048561E0,4.277931013E0
4.697800708E0,-4.197749738E-1,-1.316190556E0,3.828660330E0,4.070283593E0
4.707775708E0,-2.325057596E-2,-1.162505701E0,3.647491955E0,3.828336147E0
4.717751708E0,2.709419931E-1,-1.010645617E0,3.325068297E0,3.485813149E0
4.727727708E0,4.206204812E-1,-8.516416973E-1,3.043580997E0,3.188353879E0
4.737703708E0,3.198296861E-1,-7.846676892E-1,2.833601051E0,2.957581669E0
4.747679708E0,-4.191137999E-3,-8.992481191E-1,2.638014611E0,2.787074781E0
4.757655708E0,-3.491341768E-1,-8.858272974E-1,2.407199866E0,2.588666813E0
4.767631708E0,-7.626811351E-1,-1.015644694E0,2.169422257E0,2.513883368E0
4.777607708E0,-1.087804452E0,-9.797987773E-1,1.766526294E0,2.294327640E0
4.787583708E0,-1.290665559E0,-9.036946343E-1,1.093104807E0,1.917644309E0
4.797559708E0,-1.513785076E0,-8.318978427E-1,-1.100738347E-2,1.727344910E0
4.807535708E0,-9.631980935E-1,-1.169862668E0,-1.197836625E0,1.931616372E0
4.817511708E0,-8.079068631E-2,-1.731896452E0,-2.589972718E0,3.116721215E0
4.827487708E0,1.449928364E0,-5.108984211E-1,-3.398001788E0,3.729574454E0
4.837463708E0,2.286321985E0,6.605128822E-1,-3.347138613E0,4.106931017E0
4.847439708E0,1.113761411E0,5.178615779E-1,-3.965340165E0,4.151212802E0
4.857415708E0,4.001164886E-1,2.826564512E-1,-4.392987977E0,4.420218460E0
4.867391708E0,1.025015881E0,-8.150726259E-2,-4.775776534E0,4.885216729E0
4.877367708E0,1.209154934E0,-4.180110151E-1,-4.762912075E0,4.931746171E0
4.887343708E0,1.691456816E0,1.790943682E-2,-4.946712867E0,5.227936027E0
4.897319708E0,1.565272879E0,-2.267550230E-1,-4.948933640E0,5.195521263E0
4.907295708E0,1.015169462E0,-3.614669779E-1,-4.185476725E0,4.321972099E0
4.917271708E0,9.183357699E-1,9.445007443E-2,-4.058922513E0,4.162584939E0
4.927247708E0,8.599245706E-1,1.059065241E-1,-3.823183828E0,3.920130233E0
4.937223708E0,1.995360880E0,-2.243702361E-1,-3.732110521E0,4.237977817E0
4.947199708E0,3.334275908E0,-1.658540793E-1,-3.756163042E0,5.025302399E0
4.957175708E0,2.869694744E0,8.976676168E-1,-3.819256253E0,4.860830526E0
4.967150708E0,2.487963948E0,1.552382400E0,-3.276086172E0,4.396884843E0
4.977126708E0,5.448322986E-1,1.418466251E0,-1.999717348E0,2.511525076E0
4.987102708E0,-9.385436010E-1,9.569013731E-1,-9.593193430E-1,1.648277261E0
4.997078708E0,-1.942154725E0,4.718665025E-1,-2.808593094E-2,1.998852619E0
5.007054708E0,-2.205428680E0,1.670803866E-1,-1.640132296E-1,2.217821422E0
5.017030708E0,-1.979237475E0,2.112354894E-1,-5.677342343E-1,2.069860762E0
5.027006708E0,-1.145059949E0,9.393227425E-1,-7.563987404E-1,1.663017906E0
5.036982708E0,-4.514108956E-1,8.345494089E-1,-1.422635754E0,1.710010819E0
5.046958708E0,4.164079278E-1,3.430888867E-1,-1.116334040E0,1.239881944E0
5.056934708E0,-2.061421991E-1,1.451311816E0,3.376655942E-1,1.504266813E0
5.066910708E0,-4.091615465E-1,1.351731394E0,1.804443149E0,2.291420086E0
5.076886708E0,-7.031095558E-1,6.130209196E-1,2.955932404E0,3.099628054E0
5.086862708E0,-1.217836953E0,5.157147726E-1,3.103744753E0,3.373769415E0
5.096838708E0,-5.469798347E-1,4.553894873E-1,3.325431994E0,3.400744694E0
5.106814708E0,-2.505724134E-1,3.727293000E-1,2.544643348E0,2.583974348E0
5.116790708E0,-6.153960586E-2,-2.208230227E-2,2.580541744E0,2.581369877E0
5.126766708E0,-3.768838929E-1,-8.585232854E-1,2.946492659E0,3.092074173E0
5.136742708E0,-9.580147561E-1,-1.399277590E0,2.999899372E0,3.446036316E0
5.146718708E0,-1.468346217E0,-1.387216538E0,1.722560495E0,2.654736332E0
5.156694708E0,-1.432022582E0,-9.591345710E-1,1.109241368E0,2.049644899E0
5.166670708E0,-9.824601375E-1,-1.766706973E-2,1.128356500E0,1.496238096E0
5.176646708E0,-2.990635190E-1,1.071862749E0,5.496908963E-2,1.114159029E0
5.186622708E0,-1.095506550E-1,6.225434026E-1,-1.693163618E0,1.807308682E0
5.196598708E0,7.729931384E-2,4.893528932E-1,-1.785872392E0,1.853316389E0
5.206573708E0,3.046606566E-1,8.975177819E-1,-5.892280143E-1,1.116040294E0
5.216549708E0,9.277403585E-1,1.460848332E0,3.031295997E-1,1.756891452E0
5.226525708E0,1.788701567E0,1.593836528E0,1.502831486E0,2.828121400E0
5.236501708E0,4.788459218E-1,1.104578213E0,1.891483047E0,2.242118320E0
5.246477708E0,-1.496223840E0,-1.060422672E0,2.143110956E0,2.820657121E0
5.256453708E0,-1.436166358E0,-2.404148351E0,1.632906307E0,3.241741215E0
5.266429708E0,-1.853189486E0,-3.700682321E0,1.221155906E0,4.315157316E0
5.276405708E0,-1.992991588E0,-3.961808447E0,3.393677187E-1,4.447821050E0
5.286381708E0,-2.044489770E0,-3.590356764E0,-9.843600440E-1,4.247300885E0
5.296357708E0,-1.956733296E0,-2.707140979E0,-1.585807570E0,3.697594234E0
5.306333708E0,-1.742350543E0,-1.785936858E0,-1.971213925E0,3.179786190E0
5.316309708E0,-1.675320255E0,-1.198616863E0,-2.240850674E0,3.043812097E0
5.326285708E0,-1.687830519E0,-9.116978645E-1,-2.154472681E0,2.884738704E0
5.336261708E0,-1.474628173E0,-5.226440521E-1,-1.861809597E0,2.431875825E0
5.346237708E0,-1.028201736E0,-1.288609385E-2,-1.468869689E0,1.793026219E0
5.356213708E0,-3.815161302E-1,3.828828803E-1,-1.084076706E0,1.211353029E0
5.366189708E0,4.084959872E-2,5.864267230E-1,-9.828280735E-1,1.145214396E0
5.376165708E0,2.986843271E-1,8.373601654E-1,-9.114511120E-1,1.273235054E0
5.386141708E0,7.962248571E-1,1.172440779E0,-5.256717038E-1,1.511595893E0
5.396117708E0,1.525371333E0,1.434027738E0,-4.815912992E-1,2.148283836E0
5.406093708E0,2.047965063E0,1.561555219E0,-6.826630121E-1,2.664328131E0
5.416069708E0,2.254161568E0,1.713618641E0,-1.236946896E0,3.089946738E0
5.426045708E0,2.633246791E0,2.279634817E0,-2.142553716E0,4.089163727E0
5.436021708E0,2.668425687E0,2.581936012E0,-2.027016828E0,4.230329354E0
5.445996708E0,5.622747256E-1,1.469699847E-1,-1.380763843E0,1.498086057E0
5.455972708E0,-3.473158389E-1,-1.517569174E-1,-1.880002624E0,1.917829064E0
5.465948708E0,8.003040209E-2,7.090376823E-1,-9.634340286E-1,1.198893001E0
5.475924708E0,1.350487545E-1,5.981785666E-1,-1.364792758E-1,6.282375000E-1
5.485900708E0,2.038434394E-2,3.376680062E-1,-6.089290380E-2,3.437195799E-1
5.495876708E0,2.754082609E-1,3.664880551E-1,1.916816694E-1,4.968954287E-1
5.505852708E0,7.591678356E-1,6.763260922E-1,3.333766615E-1,1.069996628E0
5.515828708E0,1.024903029E0,8.864563116E-1,7.173311538E-1,1.533230249E0
5.525804708E0,9.863526289E-1,8.117863445E-1,1.540517376E0,2.001270188E0
5.535780708E0,6.678637824E-1,6.497426764E-1,2.085045181E0,2.283773409E0
5.545756708E0,9.690663591E-2,2.265047987E-1,2.413102046E0,2.425645647E0
5.555732708E0,-3.942953662E-1,-1.511263318E-1,2.714403806E0,2.747052243E0
5.565708708E0,-4.474401611E-1,-9.736820050E-2,2.623781903E0,2.663440396E0
5.575684708E0,-1.205825237E-1,1.236179595E-1,2.430695148E0,2.436821792E0
5.585660708E0,5.816006139E-2,1.311345553E-1,2.256113661E0,2.260669749E0
5.595636708E0,1.334890097E-2,1.111153699E-2,2.155149204E0,2.155219188E0
5.605612708E0,-2.046366873E-1,-1.255764844E-1,2.555830241E0,2.567082750E0
5.615588708E0,-5.283751640E-1,-3.745835982E-1,3.073689480E0,3.141187706E0
5.625564708E0,-7.712642629E-1,-8.646901976E-1,3.412562524E0,3.603903534E0
5.635540708E0,-8.853819589E-1,-1.272124038E0,4.005574272E0,4.294976837E0
5.645516708E0,-7.871918591E-1,-1.569542370E0,4.466822523E0,4.799545575E0
5.655492708E0,-4.496739071E-1,-1.844271020E0,4.550216682E0,4.930315818E0
5.665468708E0,1.006827678E-1,-2.007577906E0,4.215562989E0,4.670275942E0
5.675443708E0,5.415493794E-1,-1.901610863E0,3.666186088E0,4.165371536E0
5.685419708E0,7.843572751E-1,-1.720760722E0,2.870457221E0,3.437405774E0
5.695395708E0,9.216512143E-1,-1.435513808E0,2.062289572E0,2.676411615E0
5.705371708E0,9.219663061E-1,-1.121332679E0,1.384377422E0,2.005968518E0
5.715347708E0,6.253560595E-1,-9.704658171E-1,7.447358841E-1,1.373865219E0
5.725323708E0,1.779862478E-1,-6.538592624E-1,4.710101777E-1,8.252645800E-1
5.735299708E0,-3.619806192E-1,-5.718818106E-1,3.763443410E-2,6.778606971E-1
5.745275708E0,-7.639339010E-1,-4.363540595E-1,-4.423933196E-1,9.847394171E-1
5.755251708E0,-9.699036804E-1,-2.277399499E-1,-7.386658895E-1,1.240244303E0
5.765227708E0,-1.103800387E0,-1.394296712E-1,-1.004910668E0,1.499220257E0
5.775203708E0,-1.261050873E0,-5.606314022E-2,-1.258787416E0,1.782677239E0
5.785179708E0,-1.148190914E0,5.849843245E-2,-1.649613556E0,2.010718609E0
5.795155708E0,-9.141682401E-1,1.306027145E-1,-2.036238472E0,2.235850566E0
5.805131708E0,-6.611262551E-1,2.201115628E-1,-2.513284730E0,2.608090712E0
5.815107708E0,-4.264987602E-1,2.882917418E-1,-2.917190507E0,2.962264974E0
5.825083708E0,-1.713563823E-1,3.668277052E-1,-3.191069995E0,3.216652497E0
5.835059708E0,1.731595905E-1,4.577071774E-1,-3.451235424E0,3.485757601E0
5.845035708E0,4.478232999E-1,5.148990861E-1,-3.657356792E0,3.720473825E0
5.855011708E0,6.007298164E-1,5.278579777E-1,-3.835368841E0,3.917852026E0
5.864987708E0,7.174597925E-1,5.720901907E-1,-4.004883131E0,4.108664580E0
5.874963708E0,8.216983983E-1,6.672941905E-1,-4.211974552E0,4.342948241E0
5.884938708E0,8.476836439E-1,7.280861568E-1,-4.401968130E0,4.541585674E0
5.894914708E0,7.874167576E-1,8.236765113E-1,-4.549876374E0,4.690399041E0
5.904890708E0,7.667415878E-1,9.651941867E-1,-4.552784194E0,4.716708217E0
5.914866708E0,6.957558051E-1,1.080046951E0,-4.555636466E0,4.733328762E0
5.924842708E0,5.772849302E-1,1.078373843E0,-4.272755190E0,4.444388028E0
5.934818708E0,3.339144957E-1,1.088192634E0,-3.689496013E0,3.861093489E0
5.944794708E0,8.594190057E-2,1.109937990E0,-3.007880237E0,3.207287308E0
5.954770708E0,-1.127828862E-1,1.052453428E0,-2.383708677E0,2.608149776E0
5.964746708E0,-1.977665378E-1,1.052532731E0,-1.802037604E0,2.096252915E0
5.974722708E0,-1.099575116E-1,1.176012185E0,-1.404511725E0,1.835142637E0
5.984698708E0,-5.497245178E-2,1.187373471E0,-1.238189430E0,1.716388882E0
5.994674708E0,-4.956794344E-2,1.145453613E0,-1.235109116E0,1.685234550E0
6.004650708E0,-6.983293109E-2,1.244619320E0,-1.093343373E0,1.658117493E0
6.014626708E0,-2.167581846E-1,1.237998957E0,-7.915983939E-1,1.485346271E0
6.024602708E0,-2.956323363E-1,1.246903243E0,-4.593175006E-1,1.361300386E0
6.034578708E0,-2.318910711E-1,1.234917766E0,2.286775875E-1,1.277140868E0
6.044554708E0,-2.966112333E-1,1.052980336E0,1.161009107E0,1.595207810E0
6.054530708E0,-5.945257379E-1,6.488093877E-1,2.148671073E0,2.321896177E0
6.064506708E0,-9.707960386E-1,1.499751246E-1,3.162426240E0,3.311476590E0
6.074482708E0,-1.205370689E0,-1.413391526E-1,3.970892097E0,4.152213783E0
6.084458708E0,-1.199315020E0,-1.763814063E-1,4.383656990E0,4.548177165E0
6.094434708E0,-1.112209999E0,-1.028842810E-1,4.284315720E0,4.427522721E0
6.104410708E0,-1.111964343E0,-2.748878039E-1,3.930090226E0,4.093609311E0
6.114385708E0,-1.111373409E0,-4.744377425E-1,3.679903656E0,3.873232880E0
6.124361708E0,-9.782470724E-1,-6.214460995E-1,3.729566397E0,3.905486922E0
6.134337708E0,-7.411517601E-1,-7.721986480E-1,4.003995523E0,4.144584036E0
6.144313708E0,-4.656999557E-1,-9.248906448E-1,4.228216948E0,4.353173292E0
6.154289708E0,-1.560712489E-1,-1.140706331E0,4.212047642E0,4.366567818E0
6.164265708E0,1.534271380E-1,-1.278672481E0,4.044554735E0,4.244639702E0
6.174241708E0,3.541372007E-1,-1.289561166E0,3.744109007E0,3.975768280E0
6.184217708E0,4.655697090E-1,-1.270748334E0,3.286882471E0,3.554596019E0
6.194193708E0,4.559451921E-1,-1.226108351E0,2.758857263E0,3.053280384E0
6.204169708E0,4.718090536E-1,-1.149736917E0,2.189834302E0,2.517910450E0
6.214145708E0,5.406176987E-1,-1.004680873E0,1.680191571E0,2.030934481E0
6.224121708E0,4.695396761E-1,-9.409926342E-1,1.205976534E0,1.600098136E0
6.234097708E0,3.625562411E-1,-8.767809239E-1,6.990404785E-1,1.178494551E0
6.244073708E0,2.698544841E-1,-7.834024979E-1,1.495624208E-1,8.419678343E-1
6.254049708E0,2.109855209E-1,-6.591113777E-1,-4.169935995E-1,8.079767078E-1
6.264025708E0,2.845863247E-1,-5.124662058E-1,-1.174553597E0,1.312702228E0
6.274001708E0,4.634405185E-1,-3.911427668E-1,-1.837333152E0,1.934828905E0
6.283977708E0,6.087444853E-1,-2.156959648E-1,-2.391151598E0,2.476832768E0
6.293953708E0,5.452460622E-1,-1.000926924E-1,-2.728957525E0,2.784694057E0
6.303929708E0,4.502842102E-1,3.268286571E-2,-2.949175361E0,2.983531356E0
6.313904708E0,2.444444583E-1,2.111934260E-1,-3.004442074E0,3.021759079E0
6.323880708E0,2.770520411E-2,2.971375558E-1,-3.020522502E0,3.035228903E0
6.333856708E0,-8.798860878E-2,4.288802215E-1,-3.031694192E0,3.063143796E0
6.343832708E0,-3.266766295E-2,5.076012127E-1,-3.041968920E0,3.084201854E0
6.353808708E0,1.530933351E-1,5.035363381E-1,-3.020240666E0,3.065752778E0
6.363784708E0,3.754490592E-1,5.477357701E-1,-3.079531433E0,3.150315907E0
6.373760708E0,5.672952546E-1,4.881742407E-1,-3.099486226E0,3.188565957E0
6.383736708E0,7.652965946E-1,5.954101293E-1,-3.064911055E0,3.214634019E0
6.393712708E0,8.113207600E-1,7.051327655E-1,-3.080265843E0,3.262436399E0
6.403688708E0,6.974668466E-1,7.313277069E-1,-3.191352416E0,3.347540957E0
6.413664708E0,6.515015920E-1,7.906171580E-1,-3.166978297E0,3.328555445E0
6.423640708E0,5.779863037E-1,8.766307966E-1,-2.850369111E0,3.037623050E0
6.433616708E0,3.426404053E-1,8.332409482E-1,-2.364207044E0,2.530052938E0
6.443592708E0,2.609740984E-1,7.997881503E-1,-1.944052439E0,2.118279597E0
6.453568708E0,3.858172689E-1,7.908633258E-1,-1.422819942E0,1.672942423E0
6.463544708E0,5.988450761E-1,8.033138021E-1,-1.000860302E0,1.416209672E0
6.473520708E0,7.149696095E-1,7.783575203E-1,-7.064015383E-1,1.271229761E0
6.483496708E0,7.189337294E-1,8.107937066E-1,-4.236424685E-1,1.163496920E0
6.493472708E0,5.163480261E-1,7.713850810E-1,1.245860392E-1,9.365745611E-1
6.503448708E0,1.365006182E-1,6.037184380E-1,8.000458664E-1,1.011524473E0
6.513424708E0,-3.162523596E-1,4.207738975E-1,1.631807030E0,1.714602115E0
6.523399708E0,-6.638539812E-1,2.652700843E-1,2.598585082E0,2.695127966E0
6.533375708E0,-9.012320794E-1,2.467570687E-2,3.428914847E0,3.545459798E0
6.543351708E0,-1.040231213E0,-2.478350577E-1,4.021872216E0,4.161605377E0
6.553327708E0,-1.059372219E0,-4.398912960E-1,4.325435094E0,4.474948336E0
6.563303708E0,-9.439372189E-1,-5.295461055E-1,4.333203120E0,4.466328003E0
6.573279708E0,-6.151925755E-1,-5.000818761E-1,4.127622035E0,4.203071192E0
6.583255708E0,-3.429504539E-1,-5.641950609E-1,3.855427129E0,3.911553327E0
6.593231708E0,-2.038957720E-1,-6.991533297E-1,3.711344719E0,3.782124864E0
6.603207708E0,-1.525389460E-1,-8.074978504E-1,3.852846168E0,3.939510694E0
6.613183708E0,-2.969074313E-1,-1.077245038E0,4.424986864E0,4.563893036E0
6.623159708E0,-5.150538911E-1,-1.435529596E0,5.115675765E0,5.338179864E0
6.633135708E0,-3.740039930E-1,-1.685056454E0,5.618017663E0,5.877194628E0
6.643111708E0,9.372443497E-2,-1.934599100E0,5.988004326E0,6.293461191E0
6.653087708E0,5.536178863E-1,-2.157214732E0,5.947072062E0,6.350412135E0
6.663063708E0,9.056037502E-1,-2.302189282E0,5.342717886E0,5.887684439E0
6.673039708E0,1.125454089E0,-2.246817465E0,4.351172199E0,5.024692541E0
6.683015583E0,1.163830534E0,-1.956998029E0,3.156338704E0,3.891891161E0
6.692991583E0,9.331977110E-1,-1.592909305E0,2.000324289E0,2.722042484E0
6.702967583E0,4.237846289E-1,-1.314242117E0,9.786303574E-1,1.692496124E0
6.712943583E0,-2.749300135E-1,-1.114471483E0,1.568363571E-1,1.158546866E0
6.722919583E0,-1.088156235E0,-9.532064445E-1,-4.028176099E-1,1.501648609E0
6.732895583E0,-1.643102389E0,-6.539489441E-1,-8.288591909E-1,1.953059713E0
6.742870583E0,-1.992094333E0,-4.068777703E-1,-1.295622536E0,2.410939051E0
6.752846583E0,-2.029719996E0,-2.527472853E-1,-1.871380904E0,2.772311480E0
6.762822583E0,-1.747051704E0,-4.947025839E-2,-2.513101712E0,3.061097382E0
6.772798583E0,-1.329185846E0,6.968126893E-2,-3.166011752E0,3.434417114E0
6.782774583E0,-8.933300060E-1,1.352726663E-1,-3.720419598E0,3.828558368E0
6.792750583E0,-4.927989498E-1,2.361402061E-1,-3.973917446E0,4.011313111E0
6.802726583E0,-1.932385636E-1,2.501383673E-1,-4.110031271E0,4.122167803E0
6.812702583E0,-1.128585711E-2,2.533395351E-1,-4.183164736E0,4.190844247E0
6.822678583E0,9.856205575E-2,3.062282951E-1,-4.151988552E0,4.164432636E0
6.832654583E0,1.485906136E-1,3.420312351E-1,-4.025721438E0,4.042956546E0
6.842630583E0,1.036118574E-1,3.145477501E-1,-3.939674397E0,3.953569281E0
6.852606583E0,1.107796667E-1,3.008187070E-1,-3.900809709E0,3.913959685E0
6.862582583E0,2.090701924E-1,3.109111839E-1,-3.916030596E0,3.933913031E0
6.872558583E0,3.115058823E-1,3.059019474E-1,-4.042201231E0,4.065710603E0
6.882534583E0,4.453661171E-1,3.311894009E-1,-4.142947002E0,4.179957806E0
6.892510583E0,5.554373936E-1,3.930228659E-1,-4.157750398E0,4.213058989E0
6.902486583E0,5.669857542E-1,4.373959967E-1,-4.019016436E0,4.082313219E0
6.912462583E0,4.954507717E-1,4.543239784E-1,-3.840864639E0,3.899246455E0
6.922438583E0,3.815159840E-1,4.748655394E-1,-3.583930382E0,3.635327868E0
6.932414583E0,1.334835280E-1,4.755671322E-1,-3.064844397E0,3.104392553E0
6.942389583E0,-3.051876369E-1,4.745469392E-1,-2.536014612E0,2.598019323E0
6.952365583E0,-5.685442564E-1,5.984184486E-1,-2.088155315E0,2.245381890E0
6.962341583E0,-6.485363227E-1,7.255932695E-1,-1.651014549E0,1.916490020E0
6.972317583E0,-6.614469749E-1,7.468706294E-1,-1.293446787E0,1.633503116E0
6.982293583E0,-5.458130594E-1,7.084627549E-1,-8.151346064E-1,1.210072641E0
6.992269583E0,-3.653962337E-1,6.418627493E-1,-1.296789640E-1,7.498792105E-1
7.002245583E0,-1.981099155E-1,5.605553884E-1,4.949697286E-1,7.736051411E-1
7.012221583E0,-1.030748637E-1,5.108626069E-1,9.763435113E-1,1.106730176E0
7.022197583E0,-1.583542212E-1,4.181642852E-1,1.494523762E0,1.559980354E0
7.032173583E0,-2.681219907E-1,3.148294397E-1,2.053891216E0,2.095107659E0
7.042149583E0,-5.069310853E-1,1.535595044E-1,2.640209656E0,2.692817609E0
7.052125583E0,-8.487968807E-1,-2.319232307E-2,3.171199987E0,3.282910810E0
7.062101583E0,-1.116380745E0,-9.000377856E-2,3.646620719E0,3.814741055E0
7.072077583E0,-1.157556033E0,-7.586353004E-2,3.909834301E0,4.078295662E0
7.082053583E0,-1.060296226E0,-3.064098146E-2,3.985937567E0,4.124665471E0
7.092029583E0,-1.001435156E0,-7.152551729E-2,3.935984804E0,4.062014851E0
7.102005583E0,-9.870860890E-1,-2.795878689E-1,3.876707486E0,4.010158258E0
7.111981583E0,-8.199512503E-1,-5.117543438E-1,3.874888417E0,3.993616507E0
7.121957583E0,-5.116510674E-1,-6.305306992E-1,3.909793956E0,3.993224831E0
7.131932583E0,-1.857968123E-1,-7.460799397E-1,3.978373609E0,4.051988685E0
7.141908583E0,3.242525931E-2,-9.123150381E-1,3.937209796E0,4.041656975E0
7.151884583E0,2.009597022E-1,-1.015429663E0,3.736644452E0,3.877369464E0
7.161860583E0,3.669565998E-1,-9.983976739E-1,3.261966316E0,3.431017241E0
7.171836583E0,4.534053808E-1,-9.548794790E-1,2.488234674E0,2.703457610E0
7.181812583E0,4.995904542E-1,-8.713956383E-1,1.716554820E0,1.988839217E0
7.191788583E0,6.166188575E-1,-7.357342418E-1,1.052410524E0,1.424461864E0
7.201764583E0,7.288140620E-1,-6.417417119E-1,4.874852926E-1,1.086574559E0
7.211740583E0,7.587685438E-1,-6.515767287E-1,4.865351200E-2,1.001323674E0
7.221716583E0,6.930350956E-1,-7.174906366E-1,-2.296809697E-1,1.023642421E0
7.231692583E0,5.617712073E-1,-7.371497065E-1,-3.959325135E-1,1.007838843E0
7.241668583E0,3.881425970E-1,-7.652216041E-1,-5.368012941E-1,1.012113832E0
7.251644583E0,1.966247593E-1,-7.893893158E-1,-7.239659894E-1,1.089001167E0
7.261620583E0,1.711228591E-1,-7.107038464E-1,-9.923882711E-1,1.232565402E0
7.271596583E0,2.078616460E-1,-6.009399142E-1,-1.325888894E0,1.470481759E0
7.281572583E0,2.146514328E-1,-4.752043124E-1,-1.710452081E0,1.788166854E0
7.291548583E0,2.814373798E-1,-3.550272566E-1,-2.117239366E0,2.165168327E0
7.301524583E0,3.542332412E-1,-2.402808022E-1,-2.517220491E0,2.553353688E0
7.311500583E0,4.173919411E-1,-1.507303474E-1,-2.910253370E0,2.943893740E0
7.321475583E0,4.216604085E-1,-4.537660444E-2,-3.226055056E0,3.253811267E0
7.331451583E0,4.996933287E-1,7.473304398E-2,-3.505958930E0,3.542178210E0
7.341427583E0,5.801192218E-1,2.354156265E-1,-3.788982879E0,3.840358067E0
7.351403583E0,6.006210948E-1,3.534355714E-1,-4.012534212E0,4.072602756E0
7.361379583E0,6.704663050E-1,4.917190421E-1,-4.183080536E0,4.264912127E0
7.371355583E0,7.445538895E-1,6.348000437E-1,-4.291282677E0,4.401413251E0
7.381331583E0,7.255828907E-1,7.597926106E-1,-4.340008110E0,4.465358411E0
7.391307583E0,6.603972535E-1,8.318278954E-1,-4.233677663E0,4.364869841E0
7.401283583E0,5.901738015E-1,8.981906502E-1,-3.819315310E0,3.967646783E0
7.411259583E0,4.032313735E-1,8.931673803E-1,-3.430768999E0,3.567985347E0
7.421235583E0,8.923004575E-2,8.784461378E-1,-2.955795579E0,3.084859336E0
7.431211583E0,-1.256451161E-1,8.818815232E-1,-2.373804663E0,2.535438876E0
7.441187583E0,-2.413027494E-1,9.103015494E-1,-1.741670950E0,1.979973138E0
7.451163583E0,-2.407488719E-1,9.379481352E-1,-1.055145267E0,1.432144636E0
7.461139583E0,-1.270470592E-1,9.454159798E-1,-5.391717553E-1,1.095745642E0
7.471115583E0,8.290065408E-2,8.236813353E-1,7.990980327E-2,8.316904696E-1
7.481091583E0,2.863145424E-1,7.501784724E-1,8.460008883E-1,1.166388126E0
7.491067583E0,4.056340675E-1,6.713254072E-1,1.351597347E0,1.562700287E0
7.501043583E0,3.611977136E-1,5.857820674E-1,1.616430607E0,1.756830193E0
7.511019583E0,2.211601878E-1,5.199824361E-1,1.879613199E0,1.962712241E0
7.520994583E0,-6.594058581E-2,4.665068715E-1,2.263630257E0,2.312141596E0
7.530970583E0,-4.971464277E-1,3.022748464E-1,2.796933746E0,2.856809940E0
7.540946583E0,-8.109132090E-1,1.101803271E-1,3.305925098E0,3.405710013E0
7.550922583E0,-8.575937243E-1,-4.356066026E-3,3.711939381E0,3.809721766E0
7.560898583E0,-5.978317536E-1,-1.055837212E-1,3.917707577E0,3.964465082E0
7.570874583E0,-1.953589833E-1,-2.628306625E-1,3.956353580E0,3.969883970E0
7.580850583E0,1.239820218E-1,-4.237509343E-1,3.902910613E0,3.927804432E0
7.590826583E0,3.050511409E-1,-5.931801474E-1,3.955436152E0,4.011283340E0
7.600802583E0,2.985132229E-1,-8.039518795E-1,4.158398854E0,4.245907418E0
7.610778583E0,1.315502192E-1,-1.111373335E0,4.528434634E0,4.664673235E0
7.620754583E0,1.497360831E-1,-1.307577899E0,4.921562823E0,5.094503065E0
7.630730583E0,4.025579935E-1,-1.386678156E0,5.019006672E0,5.222581471E0
7.640706583E0,6.548121393E-1,-1.491880675E0,4.706615083E0,4.980633737E0
7.650682583E0,8.918978767E-1,-1.501683678E0,3.909511535E0,4.281917343E0
7.660658583E0,1.061209195E0,-1.400599060E0,2.760897356E0,3.272674273E0
7.670634583E0,1.150633734E0,-1.172292333E0,1.577199883E0,2.277232262E0
7.680610583E0,1.085554662E0,-8.898870192E-1,5.171254134E-1,1.495909932E0
7.690586583E0,7.705739260E-1,-6.197385664E-1,-4.377944845E-1,1.081445365E0
7.700561583E0,2.324689221E-1,-4.281000568E-1,-1.156306776E0,1.254733764E0
7.710537583E0,-5.283875893E-1,-3.258303912E-1,-1.557932723E0,1.677054936E0
7.720513583E0,-1.265517854E0,-2.544142899E-1,-1.778890232E0,2.197888197E0
7.730489583E0,-1.734877655E0,-1.642311663E-1,-1.952985815E0,2.617427353E0
7.740465583E0,-1.942687114E0,-7.518543575E-2,-2.158721852E0,2.905127555E0
7.750441583E0,-1.825021840E0,-3.764090259E-3,-2.471508129E0,3.072307165E0
7.760417583E0,-1.426472697E0,8.425596558E-2,-2.794774954E0,3.138899563E0
7.770393583E0,-9.554969450E-1,1.146824821E-1,-2.981032746E0,3.132520187E0
7.780369583E0,-5.359792487E-1,1.303177723E-1,-3.140460005E0,3.188533443E0
7.790345583E0,-2.146541371E-1,1.646340943E-1,-3.109071566E0,3.120818288E0
7.800321583E0,6.617973693E-2,2.277636677E-1,-3.019912637E0,3.029212502E0
7.810297583E0,3.134422608E-1,2.525974138E-1,-2.976491799E0,3.003590340E0
7.820273583E0,5.005878430E-1,3.480117307E-1,-2.887956768E0,2.951608823E0
7.830249583E0,6.166698745E-1,4.534761322E-1,-2.861841348E0,2.962441264E0
7.840225583E0,5.937825933E-1,4.984718453E-1,-2.916364295E0,3.017653501E0
7.850201583E0,4.328381287E-1,5.223103588E-1,-2.935227413E0,3.012593056E0
7.860177583E0,3.097713789E-1,6.373826858E-1,-2.984828759E0,3.067803402E0
7.870153583E0,1.948939469E-1,7.648289636E-1,-3.049325302E0,3.149814564E0
7.880129583E0,9.556093577E-2,8.632067589E-1,-3.135592782E0,3.253644095E0
7.890104583E0,8.412864245E-3,9.328904399E-1,-3.015019687E0,3.156057519E0
7.900080583E0,-1.292126120E-1,1.013406161E0,-2.649017901E0,2.839187170E0
7.910056583E0,-4.195133109E-1,1.032107457E0,-2.222212674E0,2.485853252E0
7.920032583E0,-7.067028160E-1,9.727156064E-1,-1.622657892E0,2.019560139E0
7.930008583E0,-9.574062802E-1,9.072134156E-1,-8.997110724E-1,1.596603577E0
7.939984583E0,-1.242992625E0,8.376572040E-1,-3.797526830E-1,1.546257533E0
7.949960583E0,-1.538781776E0,8.011589570E-1,-1.199234694E-1,1.738990129E0
7.959936583E0,-1.761553530E0,8.594648333E-1,-9.753331125E-2,1.962463601E0
7.969912583E0,-1.748802507E0,9.103822410E-1,-1.800784546E-1,1.979781372E0
7.979888583E0,-1.566980997E0,8.813079114E-1,-7.955253839E-2,1.799572640E0
7.989864583E0,-1.268466897E0,7.940305433E-1,3.181616217E-1,1.529941041E0
7.999840583E0,-9.523671497E-1,6.507178458E-1,9.988523680E-1,1.525825336E0
8.009816583E0,-7.219326932E-1,4.719127320E-1,1.714398952E0,1.919127980E0
8.019792583E0,-5.978022617E-1,3.328796482E-1,2.228064567E0,2.330761275E0
8.029768583E0,-6.827477237E-1,8.178252026E-2,2.555563608E0,2.646457668E0
8.039744583E0,-8.603201348E-1,-1.209861095E-1,2.841405330E0,2.971257751E0
8.049720583E0,-9.915195941E-1,-2.657363815E-1,3.109127115E0,3.274201941E0
8.059696583E0,-9.545043802E-1,-3.533307235E-1,3.217235700E0,3.374392799E0
8.069671583E0,-6.851781920E-1,-3.091971823E-1,3.220816535E0,3.307375275E0
8.079647583E0,-4.934668845E-1,-2.475205323E-1,2.960354068E0,3.011390408E0
8.089623583E0,-5.573336822E-1,-3.397791069E-1,2.561897312E0,2.643745168E0
8.099599583E0,-7.048683983E-1,-4.783477756E-1,2.287725463E0,2.441176734E0
8.109575583E0,-8.522248109E-1,-6.366825548E-1,2.379978154E0,2.606903875E0
8.119551583E0,-9.135623223E-1,-7.406303347E-1,2.975613547E0,3.199594567E0
8.129527583E0,-7.336160879E-1,-9.069543108E-1,3.656658635E0,3.838217172E0
8.139503583E0,-3.980023547E-1,-1.199770445E0,4.085287609E0,4.276380460E0
8.149479583E0,2.637869015E-2,-1.308150926E0,3.971034184E0,4.181036615E0
8.159455583E0,4.310106180E-1,-1.312267805E0,3.299579700E0,3.577015954E0
8.169431583E0,6.334646858E-1,-1.206031936E0,2.401701145E0,2.761151739E0
8.179407583E0,6.188027195E-1,-9.948563077E-1,1.530139153E0,1.927169351E0
8.189383583E0,6.150531194E-1,-8.049322383E-1,7.424870449E-1,1.255982985E0
8.199359583E0,5.705035122E-1,-6.803472224E-1,2.537451857E-1,9.234355526E-1
8.209335583E0,4.495951889E-1,-6.881624646E-1,4.780040324E-2,8.234004434E-1
8.219311583E0,3.517054168E-1,-8.091355824E-1,3.391385078E-5,8.822681520E-1
8.229287583E0,3.449577300E-1,-8.455893905E-1,6.637759209E-2,9.156545405E-1
8.239263583E0,3.843399334E-1,-8.700500478E-1,5.083101511E-2,9.525166991E-1
8.249239583E0,4.663286411E-1,-8.387708062E-1,-1.593483210E-1,9.728261685E-1
8.259214583E0,6.000934201E-1,-7.538913082E-1,-4.450760221E-1,1.061393840E0
8.269190583E0,7.006620575E-1,-5.644272684E-1,-8.977007997E-1,1.270972929E0
8.279166583E0,6.605685769E-1,-3.616184939E-1,-1.461092307E0,1.643748615E0
8.289142583E0,5.803536586E-1,-1.680797123E-1,-2.034305967E0,2.122136171E0
8.299118583E0,4.646511114E-1,3.228191117E-2,-2.583316247E0,2.624969640E0
8.309094583E0,3.908724061E-1,2.132887209E-1,-3.152604087E0,3.183894760E0
8.319070583E0,3.629032733E-1,3.871597166E-1,-3.657338081E0,3.695634353E0
8.329046583E0,3.571876200E-1,5.037200137E-1,-4.056566085E0,4.103296876E0
8.339022583E0,3.749486838E-1,6.211553467E-1,-4.415267038E0,4.474483601E0
8.348998583E0,3.715135542E-1,7.417454718E-1,-4.643825927E0,4.717343310E0
8.358974583E0,3.148606857E-1,8.348044936E-1,-4.687216360E0,4.771376426E0
8.368950583E0,2.144335144E-1,8.892166360E-1,-4.700671388E0,4.788841139E0
8.378926583E0,1.580022919E-1,9.237483913E-1,-4.563040211E0,4.658284210E0
8.388902583E0,1.840724318E-1,9.349941950E-1,-4.196694024E0,4.303526174E0
8.398878583E0,1.914456246E-1,8.992993554E-1,-3.870346885E0,3.978061810E0
8.408854583E0,5.224070571E-2,7.392978273E-1,-3.427571742E0,3.506784626E0
8.418830583E0,-1.039920360E-1,6.610768461E-1,-2.939972429E0,3.015174095E0
8.428805583E0,-2.488151789E-1,6.061167466E-1,-2.422596170E0,2.509633181E0
8.438781583E0,-3.722186188E-1,5.498314487E-1,-1.781410967E0,1.901127653E0
8.448757583E0,-3.909039080E-1,5.061395916E-1,-1.148967351E0,1.314955940E0
8.458733583E0,-2.262017302E-1,4.333679230E-1,-4.899300134E-1,6.921028807E-1
8.468709583E0,2.086671730E-1,3.562891223E-1,1.710310578E-1,4.469178341E-1
8.478685583E0,6.368781441E-1,2.656902799E-1,7.474647796E-1,1.017304621E0
8.488661583E0,9.046066537E-1,2.172303107E-1,1.073697898E0,1.420679197E0
8.498637583E0,8.841248806E-1,1.528639781E-1,1.211754752E0,1.507777762E0
8.508613583E0,5.552969874E-1,8.485066395E-2,1.479736154E0,1.582773978E0
8.518589583E0,5.658657566E-2,5.544074066E-2,1.838546450E0,1.840252364E0
8.528565583E0,-4.854034645E-1,-5.131560311E-2,2.248298857E0,2.300673285E0
8.538541583E0,-7.811028611E-1,-1.106841378E-1,2.614494771E0,2.730925771E0
8.548517583E0,-5.507000526E-1,-1.415593002E-1,2.897992344E0,2.953247231E0
8.558493583E0,-6.955328800E-2,-1.709638514E-1,2.984415361E0,2.990117279E0
8.568469583E0,4.120942906E-1,-2.312261878E-1,3.011439437E0,3.048287181E0
8.578445583E0,6.789419903E-1,-2.910576758E-1,3.057462287E0,3.145433584E0
8.588421583E0,7.488612409E-1,-3.711649870E-1,3.176027448E0,3.284160008E0
8.598397583E0,5.918878397E-1,-5.966042769E-1,3.461627095E0,3.562180516E0
8.608372583E0,2.032854688E-1,-8.678370959E-1,4.021939459E0,4.119522207E0
8.618348583E0,5.873674303E-2,-1.054952894E0,4.506636799E0,4.628839039E0
8.628324583E0,2.244825026E-1,-1.216672845E0,4.886894097E0,5.041073211E0
8.638300583E0,4.633238666E-1,-1.367050807E0,4.860375804E0,5.070182430E0
8.648276583E0,7.155890489E-1,-1.466810445E0,4.330312257E0,4.627656514E0
8.658252583E0,9.539305490E-1,-1.456050399E0,3.463675375E0,3.876482086E0
8.668228583E0,9.782848600E-1,-1.307124301E0,2.530819945E0,3.011754439E0
8.678203875E0,7.292403971E-1,-1.104470259E0,1.658691359E0,2.122004508E0
8.688179875E0,1.880211662E-1,-8.987277900E-1,8.986556500E-1,1.284774524E0
8.698155875E0,-3.955411886E-1,-7.192602233E-1,1.945514828E-1,8.435866168E-1
8.708131875E0,-8.684611400E-1,-5.643405104E-1,-4.541017842E-1,1.130890531E0
8.718107875E0,-1.114810621E0,-4.005089830E-1,-1.141746624E0,1.645234184E0
8.728083875E0,-1.091896918E0,-2.567093769E-1,-1.720675938E0,2.053987406E0
8.738059875E0,-8.573512110E-1,-1.410623509E-1,-2.240055453E0,2.402664795E0
8.748035875E0,-5.059316500E-1,-5.090092588E-2,-2.635866344E0,2.684464401E0
8.758011875E0,-2.520502241E-1,1.660638481E-2,-2.846828038E0,2.858012415E0
8.767987875E0,-8.120284192E-2,9.554558683E-2,-2.854328261E0,2.857081147E0
8.777963875E0,6.931567177E-2,2.120877759E-1,-2.763105850E0,2.772100255E0
8.787938875E0,1.793622803E-1,2.753587606E-1,-2.556878062E0,2.577909754E0
8.797914875E0,3.305279712E-1,3.049447582E-1,-2.286126249E0,2.329938470E0
8.807890875E0,4.886438452E-1,3.111874283E-1,-2.056833535E0,2.136860925E0
8.817866875E0,5.655961999E-1,3.122467611E-1,-1.935776875E0,2.040742319E0
8.827842875E0,5.478042921E-1,3.432237381E-1,-1.987813001E0,2.090285293E0
8.837818875E0,4.956651453E-1,4.105938585E-1,-2.249390532E0,2.339664296E0
8.847794875E0,4.349285448E-1,4.971850559E-1,-2.599117178E0,2.681746805E0
8.857770875E0,3.504973455E-1,6.150125543E-1,-2.838467104E0,2.925403277E0
8.867746875E0,3.429714308E-1,7.540189236E-1,-3.041512252E0,3.152296103E0
8.877722875E0,3.720290959E-1,8.244661778E-1,-3.226486580E0,3.350875375E0
8.887698875E0,4.121712546E-1,8.579963051E-1,-3.321184577E0,3.454896496E0
8.897674875E0,3.397327311E-1,9.269926458E-1,-3.321156510E0,3.464796424E0
8.907650875E0,1.426162941E-1,9.543348840E-1,-3.121925501E0,3.267646448E0
8.917626875E0,-1.866532466E-1,9.527157900E-1,-2.706687820E0,2.875528780E0
8.927602875E0,-5.392582941E-1,8.819422612E-1,-2.089303123E0,2.331053239E0
8.937578875E0,-6.985061891E-1,8.714939446E-1,-1.485077586E0,1.858189449E0
8.947554875E0,-6.955268866E-1,8.589972753E-1,-1.107658526E0,1.564781576E0
8.957529875E0,-6.848147144E-1,8.241046737E-1,-8.423884785E-1,1.362988648E0
8.967505875E0,-5.866036012E-1,8.967437567E-1,-5.521712852E-1,1.205465171E0
8.977481875E0,-5.031373387E-1,1.006737923E0,-1.205426896E-1,1.131900600E0
8.987457875E0,-4.942786608E-1,1.003963712E0,4.495643449E-1,1.205969580E0
8.997433875E0,-4.406026098E-1,1.001022489E0,1.109013326E0,1.557590203E0
9.007409875E0,-3.193353406E-1,9.028750008E-1,1.836154354E0,2.070898630E0
9.017385875E0,-3.891009922E-1,6.862895284E-1,2.466354393E0,2.589458802E0
9.027361875E0,-5.263523197E-1,4.236419568E-1,2.834383408E0,2.913803112E0
9.037337875E0,-7.412915086E-1,2.961944913E-1,3.226009448E0,3.323308778E0
9.047313875E0,-1.095819449E0,1.556863377E-1,3.601372626E0,3.767617721E0
9.057289875E0,-1.246370561E0,6.163688891E-2,3.832132407E0,4.030195711E0
9.067265875E0,-1.077352700E0,3.039914427E-2,3.945127510E0,4.089699747E0
9.077241875E0,-8.273450544E-1,-1.545464778E-1,3.956907311E0,4.045429510E0
9.087217875E0,-6.435935982E-1,-4.608669031E-1,3.943658690E0,4.022319590E0
9.097193875E0,-5.044960489E-1,-8.491083911E-1,4.059301413E0,4.177730159E0
9.107169875E0,-2.583360906E-1,-1.213117592E0,4.272725953E0,4.449109900E0
9.117145875E0,9.674572784E-2,-1.352149178E0,4.593901815E0,4.789739139E0
9.127120875E0,3.815087115E-1,-1.471105371E0,4.737638070E0,4.975431076E0
9.137096875E0,6.082981966E-1,-1.550411303E0,4.528087894E0,4.824663914E0
9.147072875E0,8.152796904E-1,-1.480805902E0,3.733672897E0,4.098509533E0
9.157048875E0,8.688195013E-1,-1.315222695E0,2.662431414E0,3.094058677E0
9.167024875E0,8.289085999E-1,-1.039257578E0,1.579492577E0,2.064447282E0
9.177000875E0,8.193408009E-1,-8.305562722E-1,5.267376512E-1,1.280076413E0
9.186976875E0,8.973091824E-1,-6.429747435E-1,-2.578633797E-1,1.133610962E0
9.196952875E0,9.669593880E-1,-4.784568992E-1,-7.567671150E-1,1.317811796E0
9.206928875E0,9.788311362E-1,-4.512871904E-1,-1.062294073E0,1.513353633E0
9.216904875E0,9.695199569E-1,-4.687267669E-1,-1.227410672E0,1.632853541E0
9.226880875E0,9.559442570E-1,-4.180388624E-1,-1.339668442E0,1.698027517E0
9.236856875E0,9.202771186E-1,-3.767602243E-1,-1.439748216E0,1.749780891E0
9.246832875E0,8.133626807E-1,-3.455313053E-1,-1.561723473E0,1.794416601E0
9.256808875E0,6.809524092E-1,-2.955895968E-1,-1.717163515E0,1.870753840E0
9.266784875E0,5.313693038E-1,-2.010346014E-1,-1.877761386E0,1.961824679E0
9.276760875E0,4.034936577E-1,-7.259441572E-2,-2.080746308E0,2.120750405E0
9.286736875E0,3.421926548E-1,8.198056729E-2,-2.373975987E0,2.399912209E0
9.296711875E0,2.512364744E-1,2.018721054E-1,-2.673126556E0,2.692485413E0
9.306687875E0,1.997249165E-1,3.354955098E-1,-2.990561954E0,3.015942320E0
9.316663875E0,1.769894254E-1,4.469355829E-1,-3.351071450E0,3.385373914E0
9.326639875E0,1.749489481E-1,4.774159487E-1,-3.745473163E0,3.779828347E0
9.336615875E0,2.085361588E-1,5.756090451E-1,-4.037515857E0,4.083668375E0
9.346591875E0,1.801071791E-1,6.691395718E-1,-4.289020389E0,4.344638335E0
9.356567875E0,1.703248969E-1,7.500507838E-1,-4.527107316E0,4.591980771E0
9.366543875E0,1.686324569E-1,8.506647006E-1,-4.623521470E0,4.704149033E0
9.376519875E0,1.157806258E-1,8.865058668E-1,-4.464684781E0,4.553318350E0
9.386495875E0,8.575972326E-2,8.961376197E-1,-4.022627676E0,4.122129399E0
9.396471875E0,6.588838113E-2,8.815725709E-1,-3.466646930E0,3.577590308E0
9.406447875E0,1.473595372E-1,8.411937462E-1,-2.984850978E0,3.104618675E0
9.416423875E0,2.281662302E-1,7.412308437E-1,-2.545081304E0,2.660624332E0
9.426399875E0,2.468612770E-1,6.942925394E-1,-2.146621040E0,2.269573640E0
9.436375875E0,1.867134364E-1,6.656392092E-1,-1.632050859E0,1.772435463E0
9.446351875E0,1.863685603E-1,6.196534163E-1,-9.288284522E-1,1.132000835E0
9.456326875E0,4.011366450E-1,5.832665587E-1,-1.838072240E-2,7.081301699E-1
9.466302875E0,7.003695506E-1,4.462048637E-1,1.132451305E0,1.404301338E0
9.476278875E0,9.342657050E-1,2.630030275E-1,2.149402560E0,2.358379606E0
9.486254875E0,1.043227326E0,1.099571644E-1,2.811323744E0,3.000659099E0
9.496230875E0,1.053562134E0,8.392294837E-2,2.937089751E0,3.121463189E0
9.506206875E0,8.104441892E-1,1.837756491E-1,2.921210468E0,3.037114399E0
9.516182875E0,3.092215944E-1,2.010988660E-1,2.827884813E0,2.851839979E0
9.526158875E0,-2.352410140E-1,1.881570774E-1,2.714978002E0,2.731638148E0
9.536134875E0,-6.561879160E-1,1.576264987E-1,2.862648264E0,2.941119477E0
9.546110875E0,-6.573721965E-1,1.864476804E-1,3.080371093E0,3.155247536E0
9.556086875E0,-4.671588361E-1,1.026118008E-1,3.340718370E0,3.374783814E0
9.566062875E0,-2.386122993E-1,-5.126842339E-2,3.499565000E0,3.508064918E0
9.576038875E0,-2.645273052E-2,-2.482821321E-1,3.592953805E0,3.601619192E0
9.586014875E0,-1.472263120E-2,-5.483569271E-1,3.907576107E0,3.945891928E0
9.595990875E0,-9.109450355E-2,-9.405490498E-1,4.423520967E0,4.523324936E0
9.605966875E0,5.101702966E-2,-1.265601177E0,4.885760322E0,5.047276790E0
9.615942875E0,3.501087615E-1,-1.521667268E0,5.179094666E0,5.409350144E0
9.625917875E0,5.611080965E-1,-1.736793641E0,5.006630455E0,5.328943888E0
9.635893875E0,7.240951397E-1,-1.849403121E0,4.348824542E0,4.780887006E0
9.645869875E0,8.120764395E-1,-1.775570329E0,3.318365049E0,3.850151262E0
9.655845875E0,7.694595198E-1,-1.575102195E0,2.276491792E0,2.873226367E0
9.665821875E0,7.034429933E-1,-1.299791747E0,1.288338075E0,1.960639086E0
9.675797875E0,5.117221111E-1,-1.022745261E0,3.759210026E-1,1.203820579E0
9.685773958E0,1.437925712E-1,-8.254154733E-1,-3.583670765E-1,9.112705244E-1
9.695749958E0,-4.298590820E-1,-6.440653224E-1,-9.063213497E-1,1.192064327E0
9.705725958E0,-1.012481351E0,-4.737927946E-1,-1.297164447E0,1.712376623E0
9.715701958E0,-1.506503976E0,-3.386911228E-1,-1.585815171E0,2.213385566E0
9.725677958E0,-1.745841623E0,-2.316878620E-1,-1.873711604E0,2.571466005E0
9.735653958E0,-1.668144552E0,-1.516870797E-1,-2.205345796E0,2.769343838E0
9.745629958E0,-1.350843056E0,-6.512647066E-2,-2.483767986E0,2.828095088E0
9.755605958E0,-8.915369573E-1,-2.070561189E-2,-2.713067717E0,2.855871724E0
9.765581958E0,-5.139659070E-1,2.263294553E-2,-2.868315970E0,2.914088144E0
9.775557958E0,-1.458647513E-1,2.717352776E-2,-2.959643632E0,2.963360483E0
9.785532958E0,2.046685180E-1,1.042622596E-1,-2.999074330E0,3.007857487E0
9.795508958E0,4.462076411E-1,2.002029995E-1,-3.023239118E0,3.062540982E0
9.805484958E0,5.556929900E-1,2.499650156E-1,-3.126595672E0,3.185416410E0
9.815460958E0,5.510650285E-1,3.323969240E-1,-3.127720676E0,3.193242397E0
9.825436958E0,4.231460764E-1,4.318202015E-1,-3.051876442E0,3.111184839E0
9.835412958E0,3.364922408E-1,5.367912807E-1,-3.062369270E0,3.127215607E0
9.845388958E0,2.751788308E-1,6.238380492E-1,-3.053132424E0,3.128340598E0
9.855364958E0,2.918528789E-1,7.599596217E-1,-3.135371173E0,3.239331586E0
9.865340958E0,2.570323076E-1,8.352341178E-1,-3.203950242E0,3.320990634E0
9.875316958E0,1.406723507E-1,8.943490295E-1,-3.175163230E0,3.301713257E0
9.885292958E0,1.930058079E-2,9.603849980E-1,-3.115683598E0,3.260398157E0
9.895268958E0,-1.833327408E-1,9.649124971E-1,-2.836750946E0,3.001969845E0
9.905244958E0,-4.213348283E-1,9.415501662E-1,-2.289082017E0,2.510764074E0
9.915220958E0,-6.766840880E-1,8.900929874E-1,-1.755806009E0,2.081591128E0
9.925196958E0,-8.760388391E-1,8.597315394E-1,-1.345678795E0,1.821382383E0
9.935172958E0,-9.827304981E-1,8.245701121E-1,-9.067201298E-1,1.570928546E0
9.945148958E0,-9.646327078E-1,7.904036616E-1,-4.798792344E-1,1.336240356E0
9.955123958E0,-8.086867355E-1,7.743428220E-1,-9.362561703E-2,1.123542077E0
9.965099958E0,-5.663720524E-1,7.318125142E-1,3.003954417E-1,9.729153504E-1
9.975075958E0,-2.707092374E-1,6.659374903E-1,8.096008015E-1,1.082686330E0
9.985051958E0,4.622013839E-2,5.663569958E-1,1.453159389E0,1.560310469E0
9.995027958E0,3.228450952E-1,3.935133376E-1,2.149463956E0,2.208908554E0
1.000500396E1,4.334690798E-1,2.484684025E-1,2.731840203E0,2.777153738E0
1.001497996E1,3.017982983E-1,1.830747872E-1,3.031075557E0,3.051559867E0
1.002495596E1,-2.185695606E-1,4.268979058E-3,3.159709039E0,3.167262554E0
1.003493196E1,-8.088691686E-1,-4.864086740E-2,3.241043224E0,3.340807753E0
1.004490796E1,-1.174442573E0,6.892113090E-2,3.277298300E0,3.482061117E0
1.005488396E1,-1.282605318E0,1.712729864E-1,3.238214341E0,3.487182667E0
1.006485996E1,-1.160326006E0,2.684826542E-1,3.187851688E0,3.403062996E0
1.007483596E1,-1.096260403E0,1.180758224E-1,3.156278477E0,3.343325081E0
1.008481196E1,-1.078650709E0,-2.380223883E-1,3.333817486E0,3.512047984E0
1.009478796E1,-9.259120803E-1,-5.439962929E-1,3.574499992E0,3.732331087E0
1.010476396E1,-6.374904207E-1,-7.501633427E-1,3.732540876E0,3.860181403E0
1.011473896E1,-2.888475379E-1,-8.782908212E-1,3.671097164E0,3.785734018E0
1.012471496E1,1.828583306E-2,-9.811156433E-1,3.276003141E0,3.419812694E0
1.013469096E1,2.559514316E-1,-1.016822543E0,2.657713296E0,2.857075285E0
1.014466696E1,3.499714981E-1,-1.088297664E0,1.988760250E0,2.293913509E0
1.015464296E1,4.767491833E-1,-1.117325436E0,1.288455019E0,1.770825302E0
1.016461896E1,7.334622330E-1,-1.034648730E0,7.108091694E-1,1.453861932E0
1.017459496E1,9.734815186E-1,-9.382460508E-1,2.854271543E-1,1.381825090E0
1.018457096E1,1.121260319E0,-8.914941996E-1,-3.837469161E-2,1.432989612E0
1.019454696E1,1.130746257E0,-9.436709514E-1,-3.004585916E-1,1.503122526E0
1.020452296E1,1.051398956E0,-9.268802331E-1,-5.165798682E-1,1.493787633E0
1.021449896E1,9.438835707E-1,-8.750742678E-1,-7.073014247E-1,1.468654648E0
1.022447496E1,7.831797921E-1,-8.324811025E-1,-9.202681285E-1,1.467408873E0
1.023445096E1,5.521513315E-1,-7.259221023E-1,-1.021815553E0,1.369649961E0
1.024442696E1,2.332132910E-1,-6.438852281E-1,-1.088011882E0,1.285591880E0
1.025440296E1,4.260184480E-2,-5.448468436E-1,-1.291128366E0,1.402029050E0
1.026437896E1,5.488434155E-3,-4.435813276E-1,-1.586909185E0,1.647748548E0
1.027435396E1,2.918268587E-2,-3.934684237E-1,-1.940357584E0,1.980064792E0
1.028432996E1,8.534203107E-2,-3.264442758E-1,-2.269352927E0,2.294299857E0
1.029430596E1,2.164041722E-1,-3.073199337E-1,-2.555204004E0,2.582700875E0
1.030428196E1,3.463393905E-1,-2.262718237E-1,-2.765126647E0,2.795903304E0
1.031425796E1,4.109096082E-1,-1.571749109E-1,-2.898576481E0,2.931773571E0
1.032423396E1,4.591586756E-1,-9.027567409E-2,-3.086193166E0,3.121468347E0
1.033420996E1,4.719236955E-1,-2.947581410E-2,-3.349541234E0,3.382751436E0
1.034418596E1,4.177169001E-1,2.415550567E-2,-3.570047922E0,3.594483699E0
1.035416196E1,4.037853241E-1,8.778936490E-2,-3.776602569E0,3.799141551E0
1.036413796E1,3.956599967E-1,1.745048156E-1,-3.938686218E0,3.962353831E0
1.037411396E1,3.072256473E-1,2.069989624E-1,-3.947893243E0,3.965236088E0
1.038408996E1,1.476689462E-1,2.445698080E-1,-3.739437082E0,3.750334678E0
1.039406596E1,6.732670482E-2,2.960368540E-1,-3.335401497E0,3.349190029E0
1.040404196E1,1.908714463E-1,2.714069199E-1,-2.844333031E0,2.863620787E0
1.041401796E1,2.915616510E-1,2.309770051E-1,-2.271677780E0,2.301929301E0
1.042399296E1,3.591006828E-1,2.033383861E-1,-1.772840118E0,1.820236766E0
1.043396896E1,3.592668899E-1,2.458993918E-1,-1.373298118E0,1.440655035E0
1.044394496E1,3.598746714E-1,3.625303672E-1,-1.043407567E0,1.161738954E0
1.045392096E1,4.477381133E-1,5.102701378E-1,-6.489666778E-1,9.391500309E-1
1.046389696E1,5.932584270E-1,6.465077774E-1,-1.276540732E-1,8.866924100E-1
1.047387296E1,6.882719538E-1,7.389154194E-1,3.148485893E-1,1.057754184E0
1.048384896E1,6.591183943E-1,8.119310631E-1,7.307481748E-1,1.275798575E0
1.049382496E1,5.405051398E-1,8.273962176E-1,1.118333788E0,1.492447911E0
1.050380096E1,2.823341599E-1,7.474606866E-1,1.669989933E0,1.851290478E0
1.051377696E1,-7.646670688E-2,5.532465881E-1,2.407618527E0,2.471549295E0
1.052375296E1,-3.697924628E-1,3.255874394E-1,3.197429427E0,3.235167474E0
1.053372896E1,-5.323954536E-1,1.435346724E-1,3.768731048E0,3.808855580E0
1.054370496E1,-3.539203056E-1,1.304328163E-1,3.840891536E0,3.859367836E0
1.055368096E1,-3.269412160E-2,1.377896369E-1,3.509668404E0,3.512524334E0
1.056365696E1,1.119924888E-1,-3.016593173E-2,3.207074409E0,3.209171009E0
1.057363296E1,4.496892560E-2,-1.781479964E-1,3.196752319E0,3.202028155E0
1.058360796E1,-2.995467183E-1,-5.730938653E-1,3.465432463E0,3.525249916E0
1.059358396E1,-8.296313158E-1,-1.091332954E0,3.982610502E0,4.211945173E0
1.060355996E1,-9.350196303E-1,-1.478443773E0,4.345203361E0,4.684106099E0
1.061353596E1,-5.566347938E-1,-1.723750696E0,4.313685699E0,4.678572759E0
1.062351196E1,6.019529443E-2,-1.782413179E0,3.973736767E0,4.355594576E0
1.063348796E1,6.596216203E-1,-1.720558116E0,3.195333200E0,3.688573596E0
1.064346396E1,9.533752097E-1,-1.627129843E0,2.405907047E0,3.056937116E0
1.065343996E1,1.057350910E0,-1.391571106E0,1.801135964E0,2.509691584E0
1.066341596E1,8.896854365E-1,-1.161566931E0,1.176253383E0,1.877325207E0
1.067339196E1,5.525072077E-1,-8.837945860E-1,5.711630416E-1,1.188521899E0
1.068336833E1,9.780281307E-2,-6.301761387E-1,-4.116966069E-2,6.390479614E-1
1.069334433E1,-4.729632574E-1,-4.590920173E-1,-5.705093229E-1,8.717457260E-1
1.070332033E1,-1.034842053E0,-2.597825090E-1,-1.030221511E0,1.483152517E0
1.071329633E1,-1.494416028E0,-1.204663834E-1,-1.389213654E0,2.043943735E0
1.072327233E1,-1.663366938E0,3.448541611E-3,-1.769057554E0,2.428243417E0
1.073324833E1,-1.619426428E0,8.960726425E-2,-2.171198641E0,2.710106079E0
1.074322333E1,-1.480747576E0,8.303725965E-2,-2.404394957E0,2.824999766E0
1.075319933E1,-1.211539867E0,6.625765108E-2,-2.486707381E0,2.766935584E0
1.076317533E1,-9.404231154E-1,5.004770748E-2,-2.409862688E0,2.587341992E0
1.077315133E1,-6.807365008E-1,3.145509660E-2,-2.367791387E0,2.463904961E0
1.078312733E1,-4.125860780E-1,-2.634024471E-3,-2.322907575E0,2.359265524E0
1.079310333E1,-9.061748039E-2,-2.638475664E-2,-2.327568975E0,2.329481706E0
1.080307933E1,1.854077166E-1,1.170013234E-2,-2.393904467E0,2.401102145E0
1.081305533E1,3.871318692E-1,3.725414582E-2,-2.489691215E0,2.519885176E0
1.082303133E1,5.446001641E-1,9.737901784E-2,-2.646122360E0,2.703337855E0
1.083300733E1,6.226918488E-1,2.186127021E-1,-2.774306776E0,2.851721364E0
1.084298333E1,5.822739208E-1,3.238165370E-1,-2.908766423E0,2.984094867E0
1.085295933E1,4.981123877E-1,4.053143710E-1,-3.039795510E0,3.106887901E0
1.086293533E1,4.521537843E-1,5.321128504E-1,-3.043271095E0,3.122352652E0
1.087291133E1,3.701021094E-1,6.264005915E-1,-2.947594274E0,3.036060816E0
1.088288733E1,2.611364135E-1,6.631238101E-1,-2.707005324E0,2.799250478E0
1.089286233E1,1.261773589E-1,7.105125694E-1,-2.329229584E0,2.438454284E0
1.090283833E1,-2.016997039E-3,7.070640278E-1,-1.909864354E0,2.036547436E0
1.091281433E1,-1.809633942E-1,6.428992414E-1,-1.458425392E0,1.604079739E0
1.092279033E1,-3.559877714E-1,6.560101607E-1,-1.090980513E0,1.321860471E0
1.093276633E1,-5.577525987E-1,6.920370490E-1,-7.932455546E-1,1.191319331E0
1.094274233E1,-7.395062806E-1,7.562871317E-1,-5.545405769E-1,1.194301058E0
1.095271833E1,-8.213637183E-1,7.932326907E-1,-3.030471539E-1,1.181394954E0
1.096269433E1,-8.029913282E-1,7.736079732E-1,6.316162348E-2,1.116805158E0
1.097267033E1,-7.238692910E-1,7.372796609E-1,5.466702247E-1,1.168938143E0
1.098264633E1,-6.459262718E-1,6.662383296E-1,1.109378777E0,1.446311008E0
1.099262233E1,-4.232526053E-1,6.790337185E-1,1.611810722E0,1.799489751E0
1.100259833E1,-2.199370599E-1,6.437693802E-1,2.075945159E0,2.184573100E0
1.101257433E1,-1.924440549E-1,4.945748223E-1,2.397184170E0,2.455225227E0
1.102255033E1,-3.453475200E-1,3.041427760E-1,2.581035833E0,2.621738681E0
1.103252633E1,-6.240456985E-1,2.459380565E-1,2.740943148E0,2.821823507E0
1.104250233E1,-7.517127818E-1,3.879890710E-1,2.717864188E0,2.846470335E0
1.105247733E1,-7.393486250E-1,5.139221625E-1,2.704926054E0,2.850855544E0
1.106245333E1,-9.611112953E-1,2.815413871E-1,3.027681833E0,3.189021442E0
1.107242933E1,-1.306948885E0,-1.572794299E-1,3.602929155E0,3.835876784E0
1.108240533E1,-1.562626429E0,-6.824860608E-1,4.259548668E0,4.588174303E0
1.109238133E1,-1.459722597E0,-1.181987016E0,4.808777050E0,5.162578821E0
1.110235733E1,-1.021668496E0,-1.489859731E0,5.011216426E0,5.326892021E0
1.111233333E1,-3.507280913E-1,-1.613153682E0,4.617967785E0,4.904171842E0
1.112230933E1,4.167169531E-1,-1.422263579E0,3.408613315E0,3.716871189E0
1.113228533E1,7.404450510E-1,-1.187988817E0,2.081802900E0,2.508680852E0
1.114226133E1,8.329727072E-1,-9.017464882E-1,1.004647543E0,1.586287158E0
1.115223733E1,8.782493059E-1,-6.172350079E-1,5.479601204E-2,1.074850455E0
1.116221333E1,8.937654774E-1,-4.255787739E-1,-5.782703322E-1,1.146442584E0
1.117218933E1,9.529572800E-1,-2.020854009E-1,-8.791323817E-1,1.312188946E0
1.118216533E1,9.981582304E-1,-4.732085846E-2,-1.025735527E0,1.432023913E0
1.119214033E1,7.799529330E-1,-8.579297930E-2,-1.078680895E0,1.333881361E0
1.120211633E1,5.255820587E-1,-1.571136613E-1,-1.026478708E0,1.163864142E0
1.121209233E1,2.526172578E-1,-1.683586610E-1,-9.260071707E-1,9.744995628E-1
1.122206833E1,7.142922096E-3,-1.847859018E-1,-8.710146922E-1,8.904287983E-1
1.123204433E1,-2.022892494E-1,-2.263415518E-1,-8.973680931E-1,9.473230352E-1
1.124202033E1,-3.535789743E-1,-2.393757994E-1,-9.014476955E-1,9.974601807E-1
1.125199633E1,-4.250019461E-1,-2.799230971E-1,-9.685789937E-1,1.094133841E0
1.126197233E1,-3.046923777E-1,-2.977097424E-1,-1.155686971E0,1.231698385E0
1.127194833E1,-1.544362944E-2,-2.911743826E-1,-1.394328799E0,1.424490725E0
1.128192433E1,2.732522646E-1,-2.727457130E-1,-1.719021176E0,1.761843020E0
1.129190033E1,5.532624852E-1,-2.077260637E-1,-2.055577553E0,2.138842811E0
1.130187633E1,6.737767062E-1,-1.507085482E-1,-2.355121055E0,2.454237825E0
1.131185233E1,7.154995134E-1,7.895933837E-3,-2.599394336E0,2.696081011E0
1.132182833E1,6.326610591E-1,1.310004348E-1,-2.801264194E0,2.874804727E0
1.133180433E1,6.204798471E-1,2.056641161E-1,-2.981446729E0,3.052264335E0
1.134178033E1,6.594922507E-1,2.738807672E-1,-3.110219960E0,3.191145390E0
1.135175533E1,6.188005999E-1,2.992437594E-1,-3.208479495E0,3.281280494E0
1.136173133E1,5.887962706E-1,4.120000408E-1,-3.203010594E0,3.282636433E0
1.137170733E1,5.716288454E-1,4.926710419E-1,-3.126296879E0,3.216087136E0
1.138168333E1,5.848600346E-1,5.433617239E-1,-2.914090313E0,3.021460835E0
1.139165933E1,5.781015304E-1,6.168283340E-1,-2.680137368E0,2.810305123E0
1.140163533E1,5.155327781E-1,6.259948678E-1,-2.329004467E0,2.466151947E0
1.141161133E1,4.343005904E-1,6.159019889E-1,-1.930945905E0,2.072801089E0
1.142158733E1,3.602701259E-1,5.872650310E-1,-1.523747562E0,1.672268343E0
1.143156333E1,3.311348391E-1,5.241797867E-1,-1.023160998E0,1.196358290E0
1.144153933E1,2.995235487E-1,4.896506627E-1,-4.720498127E-1,7.431710122E-1
1.145151533E1,3.908076482E-1,4.997990902E-1,5.675892234E-2,6.369861252E-1
1.146149133E1,6.366344614E-1,5.415409740E-1,5.103560919E-1,9.793025092E-1
1.147146733E1,9.918142938E-1,5.755914304E-1,8.784698921E-1,1.444545063E0
1.148144333E1,1.240305683E0,5.566670631E-1,1.237443325E0,1.838342294E0
1.149141833E1,1.315820865E0,5.546687771E-1,1.433299322E0,2.023212531E0
1.150139433E1,1.131305763E0,5.218416314E-1,1.696578392E0,2.104887089E0
1.151137033E1,7.552192108E-1,4.010296775E-1,1.947295305E0,2.126767468E0
1.152134633E1,3.292093509E-1,2.473456275E-1,2.101143150E0,2.141112140E0
1.153132233E1,-4.002938055E-2,2.121749177E-1,2.316751041E0,2.326790909E0
1.154129833E1,-1.914418604E-1,2.231532843E-1,2.536921515E0,2.553902533E0
1.155127433E1,-7.878728405E-2,2.031648700E-1,2.734771997E0,2.743439679E0
1.156125033E1,3.110601783E-2,-1.343763247E-2,2.862276966E0,2.862477526E0
1.157122633E1,-3.186191663E-2,-2.522977075E-1,3.115070225E0,3.125433061E0
1.158120233E1,-2.566437236E-1,-5.753702594E-1,3.454967117E0,3.511938882E0
1.159117833E1,-7.124565493E-1,-9.610289957E-1,3.911311893E0,4.090175032E0
1.160115433E1,-1.117906137E0,-1.405479731E0,4.347343442E0,4.703666911E0
1.161113033E1,-1.097899816E0,-1.703167620E0,4.458528247E0,4.897411365E0
1.162110633E1,-5.194173758E-1,-1.685890267E0,4.087285602E0,4.451732696E0
1.163108233E1,2.130410365E-1,-1.648078077E0,3.104947525E0,3.521682406E0
1.164105733E1,7.334497346E-1,-1.600653358E0,2.079072835E0,2.724441876E0
1.165103333E1,1.029107470E0,-1.401525405E0,1.458378029E0,2.269405676E0
1.166100933E1,9.964006305E-1,-1.214430146E0,9.627867419E-1,1.842447586E0
1.167098533E1,8.151928592E-1,-1.032188733E0,6.619568521E-1,1.472460476E0
1.168096100E1,4.536850970E-1,-8.367516895E-1,3.833797109E-1,1.026140127E0
1.169093700E1,-5.997149225E-2,-6.888396453E-1,3.691756546E-2,6.924301723E-1
1.170091300E1,-5.758430434E-1,-5.695865592E-1,-3.860986662E-1,8.972715525E-1
1.171088900E1,-1.041267339E0,-4.481023217E-1,-8.082395697E-1,1.392222886E0
1.172086500E1,-1.420715821E0,-2.989768340E-1,-1.137423778E0,1.844330079E0
1.173084100E1,-1.603183009E0,-1.608714475E-1,-1.485055951E0,2.191224900E0
1.174081700E1,-1.576755203E0,2.787586972E-3,-1.780388288E0,2.378223538E0
1.175079300E1,-1.433117473E0,1.359422822E-1,-2.005059364E0,2.468312996E0
1.176076900E1,-1.183950657E0,1.912864707E-1,-2.277444304E0,2.573923509E0
1.177074500E1,-8.512709838E-1,2.347076017E-1,-2.494980606E0,2.646635255E0
1.178072100E1,-5.224143662E-1,2.732944011E-1,-2.675280086E0,2.739476252E0
1.179069700E1,-2.001482914E-1,2.792573185E-1,-2.899706748E0,2.919990276E0
1.180067200E1,1.019004139E-1,3.178015063E-1,-3.134695820E0,3.152411676E0
1.181064800E1,3.276035593E-1,3.684247625E-1,-3.339428474E0,3.375624895E0
1.182062400E1,3.891403512E-1,3.935453146E-1,-3.381141341E0,3.426138482E0
1.183060000E1,3.592295043E-1,4.246400034E-1,-3.406719401E0,3.451825901E0
1.184057600E1,2.989220712E-1,4.739113103E-1,-3.315737895E0,3.362746515E0
1.185055200E1,2.660137040E-1,5.938508230E-1,-3.263935073E0,3.328166800E0
1.186052800E1,1.948153749E-1,6.740445086E-1,-3.306140860E0,3.379771652E0
1.187050400E1,2.442399154E-1,7.827597427E-1,-3.291999954E0,3.392584509E0
1.188048000E1,2.862684955E-1,8.936124996E-1,-3.127352301E0,3.265091939E0
1.189045600E1,2.667235194E-1,9.260152837E-1,-2.856046758E0,3.014241003E0
1.190043200E1,1.701129719E-1,9.741394765E-1,-2.519935353E0,2.707020563E0
1.191040800E1,-4.536043324E-2,1.042699249E0,-2.091490567E0,2.337437076E0
1.192038400E1,-3.095063538E-1,1.073923600E0,-1.533995392E0,1.897958889E0
1.193036000E1,-4.141446533E-1,1.027302361E0,-8.805585176E-1,1.415008565E0
1.194033500E1,-4.430652378E-1,9.690980802E-1,-2.013237280E-1,1.084430329E0
1.195031100E1,-3.951273519E-1,1.005220351E0,2.717715669E-1,1.113756420E0
1.196028700E1,-2.529702469E-1,1.055880116E0,5.824177623E-1,1.232106820E0
1.197026300E1,-1.651608553E-1,1.097263931E0,7.886467195E-1,1.361333864E0
1.198023900E1,-1.384490566E-1,1.099056030E0,1.080929734E0,1.547740737E0
1.199021500E1,-1.330856980E-1,1.100467109E0,1.444079833E0,1.820468683E0
1.200019100E1,-2.197957400E-1,1.006640786E0,1.833162333E0,2.102883730E0
1.201016700E1,-3.850751476E-1,8.587700379E-1,2.058771887E0,2.263694001E0
1.202014300E1,-6.075746767E-1,6.523184480E-1,2.157799746E0,2.334687579E0
1.203011900E1,-8.935776356E-1,3.932474720E-1,2.210871999E0,2.416832547E0
1.204009500E1,-1.030375365E0,2.751071841E-1,2.239385362E0,2.480363714E0
1.205007100E1,-8.570714217E-1,1.860970668E-1,2.518373562E0,2.666722509E0
1.206004700E1,-5.393306899E-1,-3.005256884E-2,2.877811264E0,2.928067352E0
1.207002300E1,-2.900488301E-1,-4.552973206E-1,3.346144001E0,3.389410517E0
1.207999900E1,-6.682965495E-2,-8.742327073E-1,3.992526795E0,4.087666723E0
1.208997400E1,8.326055020E-2,-1.354931721E0,4.605833643E0,4.801715926E0
1.209995000E1,2.572547211E-1,-1.667182685E0,5.039071977E0,5.313936816E0
1.210992600E1,4.025517809E-1,-1.818037048E0,5.047378532E0,5.379901178E0
1.211990200E1,4.926832480E-1,-1.887020744E0,4.505376724E0,4.909379136E0
1.212987800E1,5.948668133E-1,-1.741529740E0,3.428459349E0,3.891159965E0
1.213985400E1,6.052291393E-1,-1.573339406E0,2.268000466E0,2.825867178E0
1.214983000E1,5.597691572E-1,-1.449025262E0,1.275366611E0,2.009869576E0
1.215980600E1,5.847598645E-1,-1.296054207E0,3.758677930E-1,1.470706362E0
1.216978200E1,6.356733254E-1,-1.152279506E0,6.042103350E-2,1.317375929E0
1.217975800E1,-8.891849879E-1,-9.566459960E-1,4.832665265E-2,1.306964793E0
1.218973400E1,1.293217869E0,-5.868681512E-1,-1.392286366E-1,1.426958757E0
1.219971000E1,2.225570145E-1,-1.440520925E0,-6.526276195E-1,1.597045701E0
1.220968600E1,5.825207464E-1,-5.370161793E-1,-1.130997688E0,1.380895567E0
1.221966200E1,6.930258863E-2,-6.734354480E-1,-1.557187788E0,1.697984675E0
1.222963700E1,-1.843446562E-1,-4.750891223E-1,-1.307581261E0,1.403374997E0
1.223961300E1,5.830247764E-1,-3.966090363E-1,-1.413366748E0,1.579500612E0
1.224958900E1,7.985366269E-1,-6.987557191E-1,-1.517706803E0,1.851851571E0
1.225956500E1,7.388715653E-1,-7.247273699E-1,-1.968911292E0,2.224358925E0
1.226954100E1,6.401002523E-1,-7.233015264E-1,-2.101011003E0,2.312388520E0
1.227951700E1,6.180854123E-1,-6.479736013E-1,-2.209090353E0,2.383690322E0
1.228949300E1,6.601662885E-1,-4.880470273E-1,-2.408708448E0,2.544776182E0
1.229946900E1,9.054795700E-1,-3.539517343E-1,-2.668807803E0,2.840371485E0
1.230944500E1,1.067277216E0,-2.360787738E-1,-2.928362197E0,3.125718958E0
1.231942100E1,7.054624754E-1,4.215820558E-2,-3.073140426E0,3.153354832E0
1.232939700E1,4.179251341E-1,4.043480090E-1,-3.176175383E0,3.228970237E0
1.233937300E1,2.396633363E-1,6.336744547E-1,-3.280766283E0,3.349986453E0
1.234934900E1,1.247408442E-1,8.573643672E-1,-3.427106888E0,3.534925114E0
1.235932500E1,7.296353035E-2,1.054489210E0,-3.478495728E0,3.635547235E0
1.236930000E1,-8.910352662E-3,1.208339832E0,-3.597234551E0,3.794767577E0
1.237927600E1,2.451855929E-1,1.264145074E0,-3.632038933E0,3.853554924E0
1.238925200E1,1.434543463E-1,1.169065912E0,-3.517697800E0,3.709648510E0
1.239922800E1,4.739519119E-2,1.187892119E0,-3.166448539E0,3.382267042E0
1.240920400E1,-9.258357011E-2,1.044161053E0,-2.797734815E0,2.987668676E0
1.241918000E1,5.551412322E-2,1.073228220E0,-2.628746189E0,2.839930837E0
1.242915600E1,2.287196144E-1,1.156589050E0,-2.209746410E0,2.504593798E0
1.243913200E1,7.580798149E-2,1.127171050E0,-1.822320426E0,2.144087956E0
1.244910800E1,1.309543879E-1,1.214377375E0,-1.065586640E0,1.620906027E0
1.245908400E1,5.340702058E-1,1.157576060E0,1.179383397E-2,1.274893099E0
1.246906000E1,5.864263941E-1,8.965961145E-1,8.586846685E-1,1.372996674E0
1.247903600E1,6.513203283E-1,9.087194391E-1,1.310752791E0,1.722806451E0
1.248901200E1,6.596928833E-1,9.460965957E-1,1.618771833E0,1.987640741E0
1.249898800E1,4.139231535E-1,8.910616518E-1,1.756222916E0,2.012372275E0
1.250896300E1,1.290283882E-1,8.189813434E-1,2.154264520E0,2.308296859E0
1.251893900E1,-1.757617477E-1,6.875460219E-1,2.679426931E0,2.771811755E0
1.252891500E1,-4.267739448E-1,4.525961993E-1,3.218345502E0,3.277915052E0
1.253889100E1,-3.946923921E-1,1.782981236E-1,3.391614289E0,3.419154836E0
1.254886700E1,-2.522859400E-1,-3.313098170E-2,3.491094139E0,3.500354859E0
1.255884300E1,-2.125981830E-1,-3.019456847E-1,3.535982628E0,3.555213402E0
1.256881900E1,-3.557353909E-1,-6.935253847E-1,3.881969395E0,3.959445859E0
1.257879500E1,-6.505411868E-1,-1.195887383E0,4.645185989E0,4.840568494E0
1.258877100E1,-8.707679397E-1,-1.729257604E0,5.634878109E0,5.958222887E0
1.259874700E1,-1.168366220E0,-2.325228481E0,6.617850609E0,7.111097932E0
1.260872300E1,-1.323671483E0,-2.628140418E0,6.956894976E0,7.553649182E0
1.261869900E1,-1.122282851E0,-2.437637109E0,6.312387970E0,6.859142465E0
1.262867500E1,-5.369686706E-1,-2.075786261E0,4.924998062E0,5.371483023E0
1.263865100E1,8.226133414E-2,-1.598193580E0,3.197520643E0,3.575629723E0
1.264862700E1,2.809247983E-1,-1.236469033E0,1.762503995E0,2.171219644E0
1.265860200E1,1.350162294E-1,-8.558458453E-1,4.814427799E-1,9.912056515E-1
1.266857800E1,2.098603705E-1,-3.020499479E-1,-2.165884691E-1,4.268326499E-1
1.267855396E1,1.059682853E-1,-1.114699305E-1,-4.629860437E-1,4.878636075E-1
1.268852996E1,-2.602038740E-1,-6.076086637E-2,-5.452125138E-1,6.071693537E-1
1.269850596E1,-6.734662190E-1,-1.284150518E-1,-6.098102134E-1,9.175596275E-1
1.270848196E1,-9.760808252E-1,-2.396700240E-1,-7.342413014E-1,1.244703092E0
1.271845796E1,-9.093486726E-1,-2.754656915E-1,-9.073048514E-1,1.313772602E0
1.272843396E1,-7.241865756E-1,-3.918119806E-1,-1.009137036E0,1.302428647E0
1.273840996E1,-3.932972465E-1,-4.184568653E-1,-1.098312337E0,1.239386486E0
1.274838596E1,-2.078771411E-1,-4.360051634E-1,-1.181821101E0,1.276720221E0
1.275836196E1,-8.571828112E-2,-3.798671788E-1,-1.377344976E0,1.431337095E0
1.276833796E1,-4.817228615E-2,-2.365476657E-1,-1.590685902E0,1.608899315E0
1.277831396E1,-5.281314813E-2,-1.132463329E-1,-1.923521696E0,1.927576114E0
1.278828996E1,-5.442325205E-2,5.177926904E-2,-2.420613379E0,2.421778709E0
1.279826496E1,-4.800235145E-2,1.734704066E-1,-2.843536640E0,2.849227409E0
1.280824096E1,-6.185784057E-2,3.104554665E-1,-3.191374050E0,3.207035597E0
1.281821696E1,2.757181451E-2,4.719381309E-1,-3.395657054E0,3.428406719E0
1.282819296E1,3.731619939E-2,5.324845140E-1,-3.579019890E0,3.618606863E0
1.283816896E1,9.372026883E-3,6.391437209E-1,-3.682057185E0,3.737129600E0
1.284814496E1,-1.092869822E-1,7.916020484E-1,-3.697020210E0,3.782398165E0
1.285812096E1,-2.889307328E-1,8.973159067E-1,-3.671333392E0,3.790428165E0
1.286809696E1,-3.796879617E-1,9.940114582E-1,-3.517141145E0,3.674575290E0
1.287807296E1,-2.378368123E-1,1.036056374E0,-3.268243886E0,3.436771342E0
1.288804896E1,-1.060551530E-1,9.935045046E-1,-3.010425530E0,3.171901759E0
1.289802496E1,-1.150990049E-1,1.025133483E0,-2.815527892E0,2.998556945E0
1.290800096E1,-8.410554595E-2,1.012183508E0,-2.429567805E0,2.633322790E0
1.291797696E1,-1.572791375E-1,9.342682631E-1,-2.012297047E0,2.224170255E0
1.292795296E1,-2.241101812E-1,9.107691074E-1,-1.587107990E0,1.843539398E0
1.293792796E1,-3.295092035E-1,9.164221224E-1,-1.152647004E0,1.508973471E0
1.294790396E1,-4.123327474E-1,9.110389564E-1,-7.491259736E-1,1.249479891E0
1.295787996E1,-5.091079671E-1,9.118563972E-1,-2.885162383E-1,1.083473410E0
1.296785596E1,-5.585101420E-1,9.421457782E-1,2.224877250E-1,1.117619360E0
1.297783196E1,-5.984003223E-1,9.120997875E-1,8.417827070E-1,1.377899522E0
1.298780796E1,-6.021249621E-1,8.973960867E-1,1.377444963E0,1.750779493E0
1.299778396E1,-6.153662378E-1,8.502142458E-1,1.824307895E0,2.104670797E0
1.300775996E1,-7.879396449E-1,7.615108149E-1,2.201952072E0,2.459540716E0
1.301773596E1,-1.068925693E0,6.446858581E-1,2.428147516E0,2.730223865E0
1.302771196E1,-1.254622298E0,4.979296988E-1,2.614767836E0,2.942621609E0
1.303768796E1,-1.225397768E0,3.168017055E-1,2.724139420E0,3.003814007E0
1.304766396E1,-1.030519645E0,6.131353788E-2,2.705160527E0,2.895448768E0
1.305763996E1,-7.317837167E-1,-6.450531363E-2,2.562466831E0,2.665690267E0
1.306761596E1,-3.633103857E-1,-7.461938873E-2,2.404607795E0,2.433043596E0
1.307759096E1,-2.702758491E-2,-1.332851612E-1,2.338396849E0,2.342348234E0
1.308756696E1,1.409098208E-1,-3.351265139E-1,2.540093629E0,2.565977592E0
1.309754296E1,2.627058975E-2,-8.592017086E-1,3.075364122E0,3.193240079E0
1.310751896E1,-3.422536120E-2,-1.450136671E0,3.688531807E0,3.963500301E0
1.311749496E1,2.223696113E-2,-1.715195781E0,4.012706705E0,4.363966791E0
1.312747096E1,1.069706442E-1,-1.698017100E0,3.744533515E0,4.112935209E0
1.313744696E1,1.697968933E-1,-1.575796259E0,2.962487717E0,3.359806291E0
1.314742296E1,2.347100503E-1,-1.387158358E0,1.838259351E0,2.314842232E0
1.315739896E1,2.415626216E-1,-1.120795685E0,8.338416034E-1,1.417683775E0
1.316737496E1,1.757057240E-1,-9.268124054E-1,2.790531045E-1,9.837298264E-1
1.317735096E1,2.531730357E-1,-8.627174201E-1,-3.866412878E-2,8.999293571E-1
1.318732696E1,4.500253978E-1,-8.826682661E-1,-2.090549165E-1,1.012585841E0
1.319730296E1,5.936556357E-1,-9.627270272E-1,-4.960660815E-2,1.132135662E0
1.320727896E1,6.509607245E-1,-1.119808894E0,2.958767134E-1,1.328632701E0
1.321725396E1,7.002934637E-1,-1.322005465E0,6.734045309E-1,1.640604476E0
1.322722996E1,7.337736703E-1,-1.411650006E0,9.508794719E-1,1.853470072E0
1.323720596E1,7.630703404E-1,-1.531696559E0,1.105328996E0,2.037185039E0
1.324718196E1,7.664164826E-1,-1.530186077E0,1.066492374E0,2.016499352E0
1.325715796E1,6.699131584E-1,-1.408593666E0,7.584429270E-1,1.734403479E0
1.326713396E1,4.853848631E-1,-1.266884348E0,2.067569607E-1,1.372349393E0
1.327710996E1,3.554103954E-1,-9.635881758E-1,-5.621285087E-1,1.170814751E0
1.328708596E1,1.424889710E-1,-7.363914688E-1,-1.351738849E0,1.545889200E0
1.329706196E1,7.139450312E-3,-4.723066516E-1,-2.033385615E0,2.087530025E0
1.330703796E1,-5.518083192E-2,-2.572848708E-1,-2.549743289E0,2.563285250E0
1.331701396E1,-1.286270499E-1,-8.318709455E-2,-3.121972278E0,3.125728062E0
1.332698996E1,-7.208191641E-2,9.497193843E-2,-3.578700047E0,3.580685619E0
1.333696596E1,-5.717502482E-2,2.493291492E-1,-3.851037040E0,3.859523324E0
1.334694096E1,-3.678381041E-2,3.055930316E-1,-3.960879325E0,3.972820808E0
1.335691696E1,2.391971670E-2,4.328312217E-1,-4.018079712E0,4.041395748E0
1.336689296E1,8.354304381E-2,5.694292691E-1,-3.971596102E0,4.013079208E0
1.337686896E1,5.407782778E-2,6.768137500E-1,-3.987191795E0,4.044588938E0
1.338684496E1,2.664174177E-2,7.759146997E-1,-3.931219323E0,4.007148459E0
1.339682096E1,3.303662226E-2,8.098974015E-1,-3.852366697E0,3.936718733E0
1.340679696E1,6.788303085E-2,8.430821776E-1,-3.721511273E0,3.816417406E0
1.341677296E1,1.717464647E-1,8.630913495E-1,-3.364819424E0,3.477992708E0
1.342674896E1,2.298039074E-1,8.261126076E-1,-2.884951299E0,3.009687006E0
1.343672496E1,2.892108145E-1,7.863810696E-1,-2.367843427E0,2.511716659E0
1.344670096E1,2.691208047E-1,7.941542850E-1,-1.920511549E0,2.095583844E0
1.345667696E1,1.809693510E-1,8.787758477E-1,-1.591577602E0,1.827051220E0
1.346665296E1,1.751516638E-1,9.645354248E-1,-1.281507357E0,1.613464533E0
1.347662896E1,2.825672080E-1,9.650792158E-1,-7.732118243E-1,1.268494637E0
1.348660396E1,4.022255062E-1,8.678522987E-1,7.592609525E-3,9.565618735E-1
1.349657996E1,4.539860824E-1,7.852777000E-1,8.170343667E-1,1.220782366E0
1.350655596E1,4.009630924E-1,7.149545529E-1,1.464460888E0,1.678266101E0
1.351653196E1,3.197253133E-1,7.452453227E-1,1.792422443E0,1.967331462E0
1.352650796E1,1.997531658E-1,8.090896817E-1,1.931069866E0,2.103225682E0
1.353648396E1,2.328872904E-3,8.571632961E-1,2.036671751E0,2.209698205E0
1.354645996E1,-2.232156303E-1,7.307350916E-1,2.058568404E0,2.195792081E0
1.355643596E1,-2.875578797E-1,5.982703679E-1,2.105264268E0,2.207431676E0
1.356641196E1,-3.402340568E-1,6.294569311E-1,1.989557226E0,2.114311518E0
1.357638796E1,-5.053815001E-1,5.660955521E-1,1.849374323E0,1.999014763E0
1.358636396E1,-7.816740610E-1,2.983131020E-1,1.948631394E0,2.120653049E0
1.359633996E1,-1.019736722E0,-2.037951998E-1,2.684033952E0,2.878442934E0
1.360631596E1,-9.907528049E-1,-8.354427172E-1,3.948752784E0,4.155984144E0
1.361629196E1,-8.587859716E-1,-1.498609212E0,5.254502698E0,5.531106717E0
1.362626696E1,-7.941054607E-1,-2.152075761E0,6.465939361E0,6.860787520E0
1.363624296E1,-7.523504937E-1,-2.615980841E0,7.001587585E0,7.512097958E0
1.364621896E1,-5.326698708E-1,-2.681089879E0,6.443331102E0,6.999178225E0
1.365619496E1,-3.193945802E-1,-2.342977704E0,4.683679379E0,5.246752324E0
1.366617096E1,-1.183507877E-1,-1.765764695E0,2.299685943E0,2.901807592E0
1.367614696E1,-8.195888691E-2,-1.115980137E0,6.107545388E-1,1.274813725E0
1.368612246E1,-1.381761378E-1,-6.179688334E-1,-6.896837640E-1,9.362915243E-1
1.369609846E1,-1.750572313E-1,-1.902051012E-1,-1.356218401E0,1.380634407E0
1.370607446E1,-3.353005417E-1,4.958424255E-2,-1.529336915E0,1.566447079E0
1.371605046E1,-4.257436654E-1,8.769409183E-2,-1.502639698E0,1.564248696E0
1.372602646E1,-4.087198625E-1,-6.438113339E-2,-1.234757699E0,1.302237855E0
1.373600246E1,-3.940288062E-1,-3.280289808E-1,-8.075636315E-1,9.565671599E-1
1.374597846E1,-3.494553351E-1,-4.973516284E-1,-4.459121740E-1,7.538669249E-1
1.375595346E1,-2.273897383E-1,-5.981663240E-1,-1.421142375E-1,6.555192604E-1
1.376592946E1,-6.231750481E-2,-6.440267307E-1,2.856130958E-2,6.476647665E-1
1.377590546E1,8.860556312E-2,-5.983404614E-1,-2.275911748E-2,6.052935081E-1
1.378588146E1,1.858749457E-1,-4.821471136E-1,-2.410643291E-1,5.701993909E-1
1.379585746E1,2.641248706E-1,-3.295890545E-1,-6.873670971E-1,8.067616862E-1
1.380583346E1,3.653887054E-1,-1.402289856E-1,-1.335606966E0,1.391768315E0
1.381580946E1,4.676209123E-1,5.687096961E-2,-1.985479962E0,2.040596556E0
1.382578546E1,4.875134323E-1,2.130526578E-1,-2.595791867E0,2.649753988E0
1.383576146E1,3.920683810E-1,3.822247396E-1,-3.146394344E0,3.193682942E0
1.384573746E1,2.987366597E-1,4.971558929E-1,-3.525217904E0,3.572613728E0
1.385571346E1,2.634091714E-1,5.658459126E-1,-3.705842489E0,3.758035995E0
1.386568946E1,3.221027912E-1,5.696261740E-1,-3.659180539E0,3.717233703E0
1.387566546E1,4.337510618E-1,5.531160125E-1,-3.583403547E0,3.651692524E0
1.388564046E1,5.053756528E-1,5.340366574E-1,-3.440949587E0,3.518626687E0
1.389561646E1,4.521021827E-1,5.942935669E-1,-3.160506599E0,3.247519544E0
1.390559246E1,3.399569719E-1,6.476763435E-1,-2.940196377E0,3.029820147E0
1.391556846E1,2.449226144E-1,7.173122965E-1,-2.838450147E0,2.937911376E0
1.392554446E1,1.722833852E-1,8.344235475E-1,-2.746130798E0,2.875270175E0
1.393552046E1,1.190059682E-1,9.430730005E-1,-2.611032634E0,2.778676038E0
1.394549646E1,3.392210998E-2,9.581607172E-1,-2.358111321E0,2.545567063E0
1.395547246E1,-4.175474770E-2,9.684621225E-1,-1.954463992E0,2.181648880E0
1.396544846E1,-1.204022833E-1,9.780049977E-1,-1.354094108E0,1.674682459E0
1.397542446E1,-2.576004743E-1,9.962936264E-1,-7.454264402E-1,1.270676817E0
1.398540046E1,-3.181869109E-1,1.055015021E0,-2.197880656E-1,1.123657598E0
1.399537646E1,-4.056198149E-1,1.059456273E0,3.406652158E-1,1.184494752E0
1.400535246E1,-4.687621426E-1,1.102140509E0,8.546261162E-1,1.471338658E0
1.401532846E1,-5.286276175E-1,1.106970748E0,1.368206947E0,1.837613029E0
1.402530346E1,-6.393636493E-1,1.087424967E0,1.739374164E0,2.148651069E0
1.403527946E1,-7.629678679E-1,9.866607041E-1,1.942885920E0,2.308771320E0
1.404525546E1,-8.293747692E-1,7.827682212E-1,2.078587516E0,2.370889001E0
1.405523146E1,-8.301047210E-1,5.586189368E-1,2.226948919E0,2.441399281E0
1.406520746E1,-8.276650433E-1,3.754820595E-1,2.352227853E0,2.521704200E0
1.407518346E1,-8.298247855E-1,2.392871410E-1,2.325359897E0,2.480557631E0
1.408515946E1,-7.062826936E-1,1.884658469E-1,2.171118534E0,2.290875446E0
1.409513546E1,-4.915776857E-1,1.076775726E-1,2.093274552E0,2.152914636E0
1.410511146E1,-4.048203909E-1,-1.669725055E-1,2.251728249E0,2.293913572E0
1.411508746E1,-3.611282779E-1,-6.074224298E-1,2.945737783E0,3.029314564E0
1.412506346E1,-3.115186731E-1,-1.302937110E0,4.036264552E0,4.252777979E0
1.413503946E1,-9.961667418E-2,-1.935944105E0,5.165741379E0,5.517489199E0
1.414501546E1,5.055107966E-2,-2.191647962E0,5.851332677E0,6.248517448E0
1.415499046E1,1.028615134E-1,-2.054696231E0,5.541692787E0,5.911236423E0
1.416496646E1,1.288184001E-1,-1.734155524E0,4.059542903E0,4.416308203E0
1.417494246E1,1.824374407E-1,-1.218256345E0,2.043677300E0,2.386220620E0
1.418491846E1,2.460321236E-1,-7.690611052E-1,3.447962737E-1,8.779927447E-1
1.419489446E1,4.722912296E-1,-5.106518879E-1,-7.404089445E-1,1.015888656E0
1.420487046E1,8.317201605E-1,-3.438883473E-1,-1.309445938E0,1.588919849E0
1.421484646E1,1.117245987E0,-2.525816629E-1,-1.422035245E0,1.825984756E0
1.422482246E1,1.281637750E0,-2.876033418E-1,-1.294668270E0,1.844309338E0
1.423479846E1,1.321096516E0,-4.040507877E-1,-1.063881007E0,1.743673089E0
1.424477446E1,1.254832360E0,-6.015610347E-1,-6.343287581E-1,1.529330868E0
1.425475046E1,1.107715390E0,-7.314182657E-1,-1.297462070E-1,1.333731661E0
1.426472646E1,9.939851457E-1,-9.244359507E-1,4.143325317E-1,1.419246189E0
1.427470246E1,9.925910964E-1,-1.153454796E0,9.201704800E-1,1.778316272E0
1.428467846E1,9.259828316E-1,-1.362476384E0,1.164097021E0,2.017153434E0
1.429465346E1,7.975298095E-1,-1.421568345E0,1.047181360E0,1.937394941E0
1.430462946E1,6.192080777E-1,-1.345104306E0,5.470994103E-1,1.578620284E0
1.431460546E1,3.730219531E-1,-1.179910158E0,-2.171398616E-1,1.256376965E0
1.432458146E1,1.972172284E-1,-9.286050155E-1,-1.017561704E0,1.391629883E0
1.433455746E1,4.083534613E-2,-6.923944601E-1,-1.724827461E0,1.859060887E0
1.434453346E1,-2.759286448E-2,-5.182262979E-1,-2.302928224E0,2.360677501E0
1.435450946E1,-1.753579974E-3,-3.024230368E-1,-2.728992024E0,2.745698497E0
1.436448546E1,2.544583999E-2,-1.314020654E-1,-3.136585055E0,3.139439409E0
1.437446146E1,1.479192071E-2,2.092389576E-2,-3.449037455E0,3.449132641E0
1.438443746E1,2.939029858E-3,1.943154746E-1,-3.646510792E0,3.651685651E0
1.439441346E1,1.054296836E-2,3.348025051E-1,-3.780329584E0,3.795141057E0
1.440438946E1,2.409359828E-2,4.531148473E-1,-3.899709263E0,3.926019091E0
1.441436446E1,3.036137491E-2,5.480337954E-1,-3.838615215E0,3.877657749E0
1.442434046E1,2.060142182E-2,6.449989034E-1,-3.723161942E0,3.778674748E0
1.443431646E1,2.041643053E-2,6.508804715E-1,-3.582195513E0,3.640904683E0
1.444429246E1,1.684367213E-1,7.238622013E-1,-3.302678724E0,3.385267223E0
1.445426846E1,3.930722018E-1,8.014318027E-1,-2.923509008E0,3.056747227E0
1.446424446E1,5.890102056E-1,8.351166619E-1,-2.688336918E0,2.876022992E0
1.447422046E1,3.604991175E-1,9.977428588E-1,-3.984189250E0,4.123010357E0
1.448419646E1,-9.207917467E-2,1.217781185E0,-2.905500169E0,3.151729814E0
1.449417246E1,1.956862812E-1,1.010792455E0,-1.380146962E0,1.721859502E0
1.450414846E1,4.844543883E-1,9.037887745E-1,-5.817652130E-1,1.178974540E0
1.451412446E1,5.055958736E-1,9.345455673E-1,-3.568473852E-1,1.120866924E0
1.452410046E1,6.029119608E-1,9.705150799E-1,-1.330241561E-1,1.150259874E0
1.453407646E1,4.634742862E-1,8.600499934E-1,8.060316610E-1,1.266562846E0
1.454405246E1,1.901630013E-1,6.777294970E-1,2.017229759E0,2.136514717E0
1.455402746E1,-1.842969283E-2,5.915568873E-1,2.427594954E0,2.498698955E0